loggingTime,loggingSample,locationTimestamp_since1970,locationLatitude,locationLongitude,locationAltitude,locationSpeed,locationSpeedAccuracy,locationCourse,locationCourseAccuracy,locationVerticalAccuracy,locationHorizontalAccuracy,locationFloor,locationHeadingTimestamp_since1970,locationHeadingX,locationHeadingY,locationHeadingZ,locationTrueHeading,locationMagneticHeading,locationHeadingAccuracy,accelerometerTimestamp_sinceReboot,accelerometerAccelerationX,accelerometerAccelerationY,accelerometerAccelerationZ,gyroTimestamp_sinceReboot,gyroRotationX,gyroRotationY,gyroRotationZ,magnetometerTimestamp_sinceReboot,magnetometerX,magnetometerY,magnetometerZ,motionTimestamp_sinceReboot,motionYaw,motionRoll,motionPitch,motionRotationRateX,motionRotationRateY,motionRotationRateZ,motionUserAccelerationX,motionUserAccelerationY,motionUserAccelerationZ,motionAttitudeReferenceFrame,motionQuaternionX,motionQuaternionY,motionQuaternionZ,motionQuaternionW,motionGravityX,motionGravityY,motionGravityZ,motionMagneticFieldX,motionMagneticFieldY,motionMagneticFieldZ,motionHeading,motionMagneticFieldCalibrationAccuracy,activityTimestamp_sinceReboot,activity,activityActivityConfidence,activityActivityStartDate,pedometerStartDate,pedometerNumberofSteps,pedometerAverageActivePace,pedometerCurrentPace,pedometerCurrentCadence,pedometerDistance,pedometerFloorAscended,pedometerFloorDescended,pedometerEndDate,altimeterTimestamp_sinceReboot,altimeterReset,altimeterRelativeAltitude,altimeterPressure,IP_Timestamp_since1970,IP_en0,IP_pdp_ip0,deviceID,deviceOrientationTimeStamp_since1970,deviceOrientation,batteryTimeStamp_since1970,batteryState,batteryLevel,label
1659870721.190665,1,1659870716.574588,28.62004696383371,77.37098008568243,206.2709,-1,-1,-1,-1,20.57969284057617,35,-9999,1659870721.176139,-21.81301498413086,-7.884407043457031,-21.14432907104492,231.8392333984375,230.600341796875,15.39629650115967,36011.8787645,-0.958404541015625,0.1545257568359375,-0.2738189697265625,36011.789374875,-0.1873850673437119,0.101996935904026,-0.004740160424262285,36011.816263875,-31.44044494628906,-95.62278747558594,46.95863342285156,36011.843507875,0.07920089158215601,-1.285390440424986,-0.1551119243541095,-0.004761391319334507,-0.04266325384378433,-0.03737513720989227,-0.004563570022583008,0.00140833854675293,-0.01297095417976379,2,-0.03831420691220433,-0.5995403736763046,0.07799652675845203,0.7956128051880726,-0.9480272531509399,0.1544906795024872,-0.2781667113304138,-21.98398590087891,-7.684333801269531,-21.14622116088867,-1,2,36011.715443875,2,0,1659870721.027939,0,0,0,0,0,0,0,0,0,36008.88413,0,-0.1796875,97.26365,1659870721.14605,0,172480399,0,0,1,1659870721.123361,1,0.27,0
1659870721.291388,2,1659870716.574588,28.62004696383371,77.37098008568243,206.2709,-1,-1,-1,-1,20.57969284057617,35,-9999,1659870721.276669,-21.9486083984375,-7.810371398925781,-20.92922973632812,232.0934753417969,230.8545837402344,15.39623546600342,36011.9782165,-0.934906005859375,0.1512298583984375,-0.294677734375,36011.8888355,0.01949726790189743,-0.04709454253315926,-0.06932048499584198,36011.9163425,-31.6510009765625,-96.31723022460938,46.95114135742188,36011.9442255,0.07726493830664988,-1.289126643141352,-0.1516753636224941,-0.09502828121185303,0.01556861866265535,0.02715801447629929,0.02723169326782227,-0.0015583336353302,0.004260838031768799,2,-0.03737867364524575,-0.6010145287716485,0.07627431369597323,0.794711607828361,-0.9495643973350525,0.1510944664478302,-0.274768739938736,-21.90734100341797,-7.906883239746094,-21.11041259765625,-1,2,36011.715443875,2,0,1659870721.027939,0,0,0,0,0,0,0,0,0,36008.88413,0,-0.1796875,97.26365,1659870721.14605,0,172480399,0,0,1,1659870721.123361,1,0.27,0
1659870721.393496,3,1659870716.574588,28.62004696383371,77.37098008568243,206.2709,-1,-1,-1,-1,20.57969284057617,35,-9999,1659870721.377419,-21.88045120239258,-7.87603759765625,-20.94124221801758,232.0428619384766,230.8039703369141,15.39617729187012,36012.0776685,-0.94793701171875,0.144256591796875,-0.296356201171875,36011.9882875,-0.01651399582624435,-0.007525560446083546,0.03441576287150383,36012.0164115,-31.65631103515625,-96.03811645507812,46.71490478515625,36012.0449355,0.07596037504840995,-1.291358161287272,-0.153002504449935,0.01394424587488174,-0.0130072757601738,-0.02249770238995552,0.0026397705078125,-0.001481577754020691,-0.02238941192626953,2,-0.0382153724679216,-0.601866105241318,0.07619433552710037,0.7940347578812614,-0.9499816298484802,0.152406245470047,-0.2725935578346252,-21.90257263183594,-7.994819641113281,-20.99864959716797,-1,2,36011.715443875,2,0,1659870721.027939,0,0,0,0,0,0,0,0,0,36008.88413,0,-0.1796875,97.26365,1659870721.14605,0,172480399,0,0,1,1659870721.123361,1,0.27,0
1659870721.48799,4,1659870716.574588,28.62004696383371,77.37098008568243,206.2709,-1,-1,-1,-1,20.57969284057617,35,-9999,1659870721.477993,-21.89768981933594,-8.262245178222656,-20.9683723449707,231.7536010742188,230.5147094726562,15.39610195159912,36012.1771165,-0.9468841552734375,0.164398193359375,-0.2466583251953125,36012.0877395,0.03357953205704689,0.06080449372529984,0.003963049966841936,36012.1164895,-31.65779113769531,-96.20597839355469,46.74386596679688,36012.1456455,0.08227419331500176,-1.288441156531176,-0.1504149619087366,0.1197308599948883,-0.0007010749541223049,-0.01463604904711246,-0.001934289932250977,0.01834920048713684,0.01164793968200684,2,-0.03539686186942349,-0.6008417791632126,0.07787670629113697,0.794777579582934,-0.9495579600334167,0.1498484164476395,-0.2754724323749542,-21.8929328918457,-8.467384338378906,-21.20085525512695,-1,2,36011.715443875,2,0,1659870721.027939,0,0,0,0,0,0,0,0,0,36008.88413,0,-0.1796875,97.26365,1659870721.14605,0,172480399,0,0,1,1659870721.123361,1,0.27,0
1659870721.594517,5,1659870716.574588,28.62004696383371,77.37098008568243,206.2709,-1,-1,-1,-1,20.57969284057617,35,-9999,1659870721.578884,-21.81058120727539,-8.029525756835938,-20.93616104125977,231.8887023925781,230.6498107910156,15.39602851867676,36012.2765685,-0.9543914794921875,0.1504974365234375,-0.2694091796875,36012.1871875,0.03129693493247032,0.007743407040834427,0.01320688240230083,36012.2165595,-31.52171325683594,-96.24078369140625,46.76554870605469,36012.2463555,0.08440027007362558,-1.286575622645485,-0.1488035860318801,-0.07675890624523163,0.01339797582477331,-0.02867778576910496,0.002831399440765381,-0.001480758190155029,0.02633416652679443,2,-0.03418773734316036,-0.6001465006149875,0.0782096194244819,0.7953229970099588,-0.9492729902267456,0.1482550501823425,-0.2773107588291168,-21.78158187866211,-8.188758850097656,-20.97854614257812,-1,2,36011.715443875,2,0,1659870721.027939,0,0,0,0,0,0,0,0,0,36008.88413,0,-0.1796875,97.26365,1659870721.14605,0,172480399,0,0,1,1659870721.123361,1,0.27,0
1659870721.689155,6,1659870716.574588,28.62004696383371,77.37098008568243,206.2709,-1,-1,-1,-1,20.57969284057617,35,-9999,1659870721.679398,-21.7098503112793,-7.915275573730469,-21.07181930541992,232.5770416259766,231.3381500244141,15.39598274230957,36012.3760215,-0.96746826171875,0.1404876708984375,-0.299041748046875,36012.2866395,-0.1218547970056534,0.06115150451660156,-0.02803696133196354,36012.3166385,-31.53338623046875,-96.17146301269531,46.61788940429688,36012.34706550001,0.07376332139805489,-1.283217427912888,-0.1475612033828018,-0.05984410643577576,0.03780654817819595,-0.04808149486780167,0.0001327991485595703,-0.009224176406860352,-0.02654942870140076,2,-0.03700629451055673,-0.5986284546344228,0.07354662774129209,0.7967843235683522,-0.9485121369361877,0.1470262855291367,-0.280549019575119,-21.52719879150391,-7.897773742675781,-21.30538558959961,-1,2,36012.3601285,1,2,1659870721.672624,0,0,0,0,0,0,0,0,0,36008.88413,0,-0.1796875,97.26365,1659870721.14605,0,172480399,0,0,1,1659870721.123361,1,0.27,0
1659870721.799097,7,1659870716.574588,28.62004696383371,77.37098008568243,206.2709,-1,-1,-1,-1,20.57969284057617,35,-9999,1659870721.780305,-21.15493011474609,-8.1873779296875,-21.41557693481445,233.1656646728516,231.9267730712891,15.39593601226807,36012.4754735,-0.955902099609375,0.1205596923828125,-0.3079986572265625,36012.3860925,-0.04485855251550674,0.118022508919239,-0.08103705942630768,36012.41672250001,-31.14715576171875,-96.06893920898438,46.45648193359375,36012.4477765,0.06769449009883168,-1.274575535692773,-0.1417204667388998,-0.01349438726902008,0.07824646681547165,-0.03681532666087151,0.01070034503936768,-0.01162311434745789,-0.0108235776424408,2,-0.03678568229072549,-0.5951102693882279,0.06923369785063366,0.7998107978955561,-0.9468576312065125,0.1412465423345566,-0.288981169462204,-21.19730758666992,-7.927734375,-21.20952987670898,-1,2,36012.3601285,1,2,1659870721.672624,0,0,0,0,0,0,0,0,0,36009.886588,0,-0.1427002,97.26321,1659870721.14605,0,172480399,0,0,1,1659870721.123361,1,0.27,0
1659870721.885775,8,1659870716.574588,28.62004696383371,77.37098008568243,206.2709,-1,-1,-1,-1,20.57969284057617,35,-9999,1659870721.880905,-21.10877227783203,-8.530181884765625,-21.16455459594727,233.5985107421875,232.359619140625,15.3958797454834,36012.5749215,-0.9075469970703125,0.1212310791015625,-0.2775726318359375,36012.4855445,0.02481639944016933,0.05590001866221428,-0.09927598387002945,36012.5167885,-30.730712890625,-96.23175048828125,46.1658935546875,36012.5484865,0.07055734828885879,-1.27499554001626,-0.1291523957396577,0.1523908972740173,-0.1450473368167877,-0.2145034968852997,0.01629018783569336,-0.008340761065483093,0.002884209156036377,2,-0.03087502289765022,-0.5954054735091446,0.06666882701149413,0.8000589214414623,-0.9486021399497986,0.1287936419248581,-0.2890781164169312,-20.92441558837891,-8.263191223144531,-21.47561264038086,-1,2,36012.3601285,1,2,1659870721.672624,0,0,0,0,0,0,0,0,0,36009.886588,0,-0.1427002,97.26321,1659870721.14605,0,172480399,0,0,1,1659870721.123361,1,0.27,0
1659870721.988043,9,1659870716.574588,28.62004696383371,77.37098008568243,206.2709,-1,-1,-1,-1,20.57969284057617,35,-9999,1659870721.981693,-21.3127555847168,-8.7994384765625,-20.89243316650391,233.3994750976562,232.1605834960938,15.39587879180908,36012.67437350001,-0.945159912109375,0.112335205078125,-0.2603912353515625,36012.5849925,0.1107195913791656,-0.1682313531637192,-0.112040251493454,36012.6168675,-30.74870300292969,-96.75462341308594,46.94363403320312,36012.6491965,0.07763537819074687,-1.287802209162244,-0.119109262627933,-0.02801051363348961,-0.0236332006752491,0.08602145314216614,0.02034544944763184,-0.01697541773319244,0.01127749681472778,2,-0.02430952051156422,-0.6006515514441219,0.066685800185,0.7963540346412354,-0.9534204006195068,0.1188278272747993,-0.2772535085678101,-21.32201385498047,-8.668281555175781,-20.93280410766602,-1,2,36012.3601285,1,2,1659870721.672624,0,0,0,0,0,0,0,0,0,36009.886588,0,-0.1427002,97.26321,1659870721.14605,0,172480399,0,0,1,1659870721.123361,1,0.27,0
1659870722.087112,10,1659870716.574588,28.62004696383371,77.37098008568243,206.2709,-1,-1,-1,-1,20.57969284057617,35,-9999,1659870722.083113,-21.56488800048828,-8.308448791503906,-20.93522262573242,233.4068450927734,232.1679534912109,15.39587688446045,36012.7738255,-0.9712982177734375,0.1015625,-0.306793212890625,36012.6844445,-0.1832326650619507,0.06040342152118683,0.1003175526857376,36012.7169465,-31.10160827636719,-96.37142944335938,46.57305908203125,36012.7499065,0.0682294666893639,-1.28705478885702,-0.1308137628939188,-0.0242764949798584,-0.07538720965385437,0.06788452714681625,0.003265082836151123,-0.02977877855300903,-0.03945901989936829,2,-0.03183492066365706,-0.6001730816496855,0.06642233002393552,0.7964713877944595,-0.9518122673034668,0.1304409950971603,-0.2775576114654541,-21.42536926269531,-8.345619201660156,-20.95678329467773,-1,2,36012.3601285,1,2,1659870721.672624,0,0,0,0,0,0,0,0,0,36009.886588,0,-0.1427002,97.26321,1659870721.14605,0,172480399,0,0,1,1659870721.123361,1,0.27,0
1659870722.187984,11,1659870716.574588,28.62004696383371,77.37098008568243,206.2709,-1,-1,-1,-1,20.57969284057617,35,-9999,1659870722.183103,-21.48655700683594,-7.836235046386719,-21.30845642089844,233.8184814453125,232.57958984375,15.39581489562988,36012.8732705,-0.94818115234375,0.1053009033203125,-0.31396484375,36012.7838965,-0.01954653672873974,-0.05720709636807442,0.03208230063319206,36012.8170085,-31.18232727050781,-96.33172607421875,46.72828674316406,36012.8506165,0.06276111376613806,-1.290220002427612,-0.1319256506892947,-0.1071982160210609,0.02979842200875282,-0.01556755322962999,0.007645785808563232,-0.02639497816562653,-0.03691339492797852,2,-0.03381779692495859,-0.6013357856164087,0.06462975985559147,0.7956598742838675,-0.952546238899231,0.1315433084964752,-0.2745032608509064,-21.39620590209961,-8.078880310058594,-21.01317596435547,-1,2,36012.3601285,1,2,1659870721.672624,0,0,0,0,0,0,0,0,0,36009.886588,0,-0.1427002,97.26321,1659870721.14605,0,172480399,0,0,1,1659870721.123361,1,0.27,0
1659870722.283679,12,1659870716.574588,28.62004696383371,77.37098008568243,206.2709,-1,-1,-1,-1,20.57969284057617,35,-9999,1659870722.263836,-21.56573104858398,-8.08587646484375,-21.21379470825195,234.0094909667969,232.7705993652344,15.39575004577637,36012.9727195,-0.929840087890625,0.108306884765625,-0.25885009765625,36012.8833415,-0.04634619131684303,0.004260258749127388,-0.03119653463363647,36012.9170725,-31.32440185546875,-96.00611877441406,46.51800537109375,36012.9513195,0.06044272474770609,-1.293007853548438,-0.1282273468231319,0.01324954256415367,-0.09342896938323975,-0.05401430651545525,0.02557700872421265,-0.02448271214962006,0.006032675504684448,2,-0.03295162179936512,-0.6024326669273753,0.06264728479390744,0.7950246445441262,-0.9537689685821533,0.1278762519359589,-0.2719781398773193,-21.56573104858398,-8.08587646484375,-21.21379470825195,-1,2,36012.3601285,1,2,1659870721.672624,0,0,0,0,0,0,0,0,0,36009.886588,0,-0.1427002,97.26321,1659870721.14605,0,172480399,0,0,1,1659870721.123361,1,0.27,0
1659870722.387641,13,1659870716.574588,28.62004696383371,77.37098008568243,206.2709,-1,-1,-1,-1,20.57969284057617,35,-9999,1659870722.38434,-21.91768646240234,-8.054862976074219,-20.95755004882812,234.5856628417969,233.3467712402344,15.39566802978516,36013.0721715,-0.9473876953125,0.1051025390625,-0.281341552734375,36012.98279050001,-0.07647746056318283,-0.05203257501125336,-0.02580310218036175,36013.0171405,-31.36393737792969,-96.16557312011719,46.60406494140625,36013.0520295,0.05302268319640215,-1.304265391526681,-0.1251075338320977,0.006119401194155216,-0.2347457110881805,-0.1099837571382523,0.01127362251281738,-0.01331599056720734,-0.0212649405002594,2,-0.0336113826424394,-0.6068000866421852,0.05895203937763657,0.7919522806263727,-0.9571505188941956,0.1247814297676086,-0.261327862739563,-21.86080169677734,-8.115028381347656,-21.11183166503906,-1,2,36012.3601285,1,2,1659870721.672624,0,0,0,0,0,0,0,0,0,36009.886588,0,-0.1427002,97.26321,1659870721.14605,0,172480399,0,0,1,1659870721.123361,1,0.27,0
1659870722.484753,14,1659870716.574588,28.62004696383371,77.37098008568243,206.2709,-1,-1,-1,-1,20.57969284057617,35,-9999,1659870722.465147,-22.01558303833008,-8.243927001953125,-21.04677200317383,235.1204681396484,233.8815765380859,15.39560508728027,36013.17162350001,-0.9528961181640625,0.108978271484375,-0.2674713134765625,36013.0822425,0.03882036730647087,-0.2397026121616364,-0.1129177659749985,36013.1171975,-31.75205993652344,-96.47077941894531,47.00140380859375,36013.1527395,0.04551618227467399,-1.315664663011763,-0.1194904012818025,-0.2147161215543747,0.09969326108694077,0.02753244526684284,0.008993983268737793,-0.007176250219345093,-0.01241201162338257,2,-0.03334884034380808,-0.6112292733439948,0.05447245045221294,0.7888721856847373,-0.9607303738594055,0.1192062571644783,-0.2505732476711273,-22.01558303833008,-8.243927001953125,-21.04677200317383,-1,2,36012.3601285,1,2,1659870721.672624,0,0,0,0,0,0,0,0,0,36009.886588,0,-0.1427002,97.26321,1659870721.14605,0,172480399,0,0,1,1659870721.123361,1,0.27,0
1659870722.587883,15,1659870722.567154,28.62001662610188,77.37100079368427,206.2729,-1,-1,-1,-1,20.6275691986084,35,-9999,1659870722.585571,-21.94060516357422,-7.608222961425781,-21.09465408325195,235.6774291992188,234.4385375976562,15.39538955688477,36013.2710755,-0.9840240478515625,0.071624755859375,-0.239227294921875,36013.1816945,-0.1561374068260193,0.04423723742365837,0.06964699178934097,36013.2172535,-31.73789978027344,-95.70368957519531,46.66166687011719,36013.2534495,0.03628533979888934,-1.314184856328379,-0.1224477514226375,-0.05899186432361603,0.04070770367980003,-0.05286700278520584,-0.02263736724853516,-0.04986110329627991,0.009747087955474854,2,-0.03737658642215316,-0.6104514160030803,0.05170424264094906,0.7894800511276845,-0.9600133895874023,0.122141994535923,-0.2519041299819946,-21.91639709472656,-7.707855224609375,-21.13467025756836,-1,2,36012.3601285,1,2,1659870721.672624,0,0,0,0,0,0,0,0,0,36009.886588,0,-0.1427002,97.26321,1659870721.14605,0,172480399,0,0,1,1659870721.123361,1,0.27,0
1659870722.681343,16,1659870722.567154,28.62001662610188,77.37100079368427,206.2729,-1,-1,-1,-1,20.6275691986084,35,-9999,1659870722.666408,-21.53891372680664,-7.133895874023438,-21.61307144165039,236.4847717285156,235.2458801269531,15.39527034759521,36013.3705235,-0.97967529296875,0.076934814453125,-0.23681640625,36013.2811465,-0.157020777463913,0.1079246029257774,-0.06047958880662918,36013.3173145,-31.61676025390625,-95.34637451171875,46.53253173828125,36013.3541595,0.0201633979668875,-1.303656790932502,-0.1229977737215847,-0.1260233670473099,0.09391366690397263,0.02450110577046871,-0.02324080467224121,-0.04518847167491913,0.01927292346954346,2,-0.04275253462077434,-0.605955933593777,0.04528176210456805,0.7930567895548546,-0.9572430849075317,0.1226878836750984,-0.2619792520999908,-21.53891372680664,-7.133895874023438,-21.61307144165039,-1,2,36012.3601285,1,2,1659870721.672624,0,0,0,0,0,0,0,0,0,36009.886588,0,-0.1427002,97.26321,1659870721.14605,0,172480399,0,0,1,1659870721.123361,1,0.27,0
1659870722.784469,17,1659870722.567154,28.62001662610188,77.37100079368427,206.2729,-1,-1,-1,-1,20.6275691986084,35,-9999,1659870722.767312,-21.48197937011719,-6.875572204589844,-21.90585708618164,236.5955200195312,235.3566284179688,15.39510631561279,36013.4699755,-0.9298858642578125,0.0192108154296875,-0.2193145751953125,36013.3805945,-0.09116186946630478,0.04862905666232109,0.03895245864987373,36013.4173715,-31.25619506835938,-95.01084899902344,45.9990234375,36013.4548695,0.01277620299641318,-1.299650003561592,-0.1306738947082655,-0.1193642765283585,0.03902343660593033,0.1116400435566902,0.01997816562652588,-0.1035231500864029,0.04687881469726562,2,-0.04812571020982781,-0.6040758452766619,0.0445782540396957,0.7942223411695893,-0.9552503228187561,0.1303023248910904,-0.2655525803565979,-21.48197937011719,-6.875572204589844,-21.90585708618164,-1,2,36012.3601285,1,2,1659870721.672624,0,0,0,0,0,0,0,0,0,36010.889423,0,-0.09249878,97.26263,1659870721.14605,0,172480399,0,0,1,1659870721.123361,1,0.27,0
1659870722.882505,18,1659870722.567154,28.62001662610188,77.37100079368427,206.2729,-1,-1,-1,-1,20.6275691986084,35,-9999,1659870722.867957,-21.47931671142578,-6.329383850097656,-22.16186904907227,236.7667846679688,235.5278930664062,15.39506053924561,36013.5694285,-0.9105377197265625,-0.004302978515625,-0.22222900390625,36013.4800475,-0.1445340067148209,0.02453197538852692,0.1150482892990112,36013.5174385,-31.43267822265625,-94.18940734863281,45.871826171875,36013.5555795,0.002258443551947728,-1.296978376267711,-0.1409506579932392,-0.1775459945201874,0.04893358796834946,-0.03113989531993866,0.0311550498008728,-0.1516386121511459,0.04502537846565247,2,-0.055441783972384,-0.602546684318106,0.04342840559786798,0.7949701316038755,-0.953197717666626,0.140484407544136,-0.26772740483284,-21.47931671142578,-6.329383850097656,-22.16186904907227,-1,2,36012.3601285,1,2,1659870721.672624,0,0,0,0,0,0,0,0,0,36010.889423,0,-0.09249878,97.26263,1659870721.14605,0,172480399,0,0,1,1659870721.123361,1,0.27,0
1659870722.984905,19,1659870722.567154,28.62001662610188,77.37100079368427,206.2729,-1,-1,-1,-1,20.6275691986084,35,-9999,1659870722.968718,-21.46777725219727,-5.368690490722656,-22.80369567871094,237.6508941650391,236.4120025634766,15.39508819580078,36013.6688805,-0.933380126953125,0.046722412109375,-0.279754638671875,36013.5794985,-0.2262424528598785,0.08391913771629333,-0.017965417355299,36013.61750350001,-31.16319274902344,-93.63844299316406,45.13966369628906,36013.6562895,-0.01805970624609688,-1.291493186459002,-0.14822538170173,-0.1696840226650238,0.09213946759700775,0.03504687547683716,0.01561832427978516,-0.1101466119289398,0.001056402921676636,2,-0.06455270171969135,-0.5995844600484801,0.03736620812043548,0.7968280850834719,-0.9507073163986206,0.1476832032203674,-0.2726628482341766,-21.46777725219727,-5.368690490722656,-22.80369567871094,-1,2,36012.3601285,1,2,1659870721.672624,0,0,0,0,0,0,0,0,0,36010.889423,0,-0.09249878,97.26263,1659870721.14605,0,172480399,0,0,1,1659870721.123361,1,0.27,0
1659870723.078922,20,1659870722.567154,28.62001662610188,77.37100079368427,206.2729,-1,-1,-1,-1,20.6275691986084,35,-9999,1659870723.069045,-21.5180549621582,-5.387306213378906,-22.69011688232422,236.6782989501953,235.4394073486328,15.39510440826416,36013.7683285,-0.9334716796875,0.0381622314453125,-0.27276611328125,36013.67895050001,-0.09204816818237305,0.07625375688076019,0.0815955251455307,36013.71757250001,-31.15757751464844,-93.13887023925781,45.29039001464844,36013.7569995,-0.008454597443857422,-1.285659609263657,-0.1589401094371395,0.2413536757230759,-0.01367191411554813,0.09458905458450317,0.004092097282409668,-0.1034011691808701,0.008654385805130005,2,-0.06606664312926813,-0.5972969265080253,0.04421594085067454,0.798070465686878,-0.9475276470184326,0.1582717597484589,-0.2777431607246399,-21.5180549621582,-5.387306213378906,-22.69011688232422,-1,2,36012.3601285,1,2,1659870721.672624,0,0,0,0,0,0,0,0,0,36010.889423,0,-0.09249878,97.26263,1659870721.14605,0,172480399,0,0,1,1659870721.123361,1,0.27,0
1659870723.184733,21,1659870722.567154,28.62001662610188,77.37100079368427,206.2729,-1,-1,-1,-1,20.6275691986084,35,-9999,1659870723.169755,-21.8621711730957,-5.856941223144531,-22.42780685424805,236.8493041992188,235.6104125976562,15.39511203765869,36013.86777954167,-1.097915649414062,0.1450347900390625,-0.4374237060546875,36013.7783995,0.3271059393882751,-0.1892085373401642,0.01133920717984438,36013.8176325,-31.65122985839844,-94.14707946777344,45.27615356445312,36013.8577095,-0.001781394744660775,-1.299642811456837,-0.1439761627971755,-0.3760297000408173,0.3283159732818604,-0.02287447825074196,-0.1315584778785706,0.005904272198677063,-0.1325265765190125,2,-0.05780432570320833,-0.6034258949622676,0.04281101611066018,0.7941681583389288,-0.9534939527511597,0.1434792578220367,-0.26507169008255,-21.8621711730957,-5.856941223144531,-22.42780685424805,-1,2,36012.3601285,1,2,1659870721.672624,0,0,0,0,0,0,0,0,0,36010.889423,0,-0.09249878,97.26263,1659870721.14605,0,172480399,0,0,1,1659870721.123361,1,0.27,0
1659870723.28122,22,1659870722.567154,28.62001662610188,77.37100079368427,206.2729,-1,-1,-1,-1,20.6275691986084,35,-9999,1659870723.270417,-21.02082824707031,-5.618881225585938,-23.43002319335938,236.1195526123047,234.8806610107422,15.3950309753418,36013.96723154167,-1.135726928710938,0.1404571533203125,-0.323455810546875,36013.87785054167,-0.309776246547699,0.5262640714645386,0.2677757740020752,36013.91769954167,-30.88642883300781,-93.33074951171875,44.353271484375,36013.95841854167,0.005426570210000305,-1.261792316081372,-0.1573039606889934,0.5383521318435669,-0.02923462726175785,-0.1327093094587326,-0.2051059007644653,-0.03339554369449615,-0.04945257306098938,2,-0.06185018729661276,-0.588215080611262,0.048530558783794,0.8048739908416804,-0.9408748149871826,0.15665602684021,-0.3003551363945007,-21.02082824707031,-5.618881225585938,-23.43002319335938,-1,2,36012.3601285,1,2,1659870721.672624,0,0,0,0,0,0,0,0,0,36010.889423,0,-0.09249878,97.26263,1659870721.14605,0,172480399,0,0,1,1659870721.123361,1,0.27,0
1659870723.384793,23,1659870722.567154,28.62001662610188,77.37100079368427,206.2729,-1,-1,-1,-1,20.6275691986084,35,-9999,1659870723.371129,-21.389404296875,-7.6595458984375,-22.19952011108398,235.7516479492188,234.5127563476562,15.39501571655273,36014.06668354167,-0.9017181396484375,0.153106689453125,-0.314849853515625,36013.97730254167,0.5463613271713257,-0.1914828717708588,-0.2282097339630127,36014.01776354167,-31.01914978027344,-95.19694519042969,45.22923278808594,36014.05912854167,0.03816977057539632,-1.279338660958054,-0.1191490159307157,0.3030556440353394,0.09402152895927429,-0.1531155556440353,0.0157020092010498,0.04284533858299255,-0.03063708543777466,2,-0.03638781210688735,-0.5966742817704548,0.05081790049543572,0.8000457815694451,-0.95103520154953,0.1188673004508018,-0.2853114604949951,-21.389404296875,-7.6595458984375,-22.19952011108398,-1,2,36012.3601285,1,2,1659870721.672624,0,0,0,0,0,0,0,0,0,36010.889423,0,-0.09249878,97.26263,1659870721.14605,0,172480399,0,0,1,1659870721.123361,1,0.27,0
1659870723.477689,24,1659870722.567154,28.62001662610188,77.37100079368427,206.2729,-1,-1,-1,-1,20.6275691986084,35,-9999,1659870723.472062,-21.28581619262695,-8.914939880371094,-21.48700714111328,234.5195007324219,233.2806091308594,15.39495944976807,36014.16613154167,-0.69805908203125,-0.003448486328125,-0.2917633056640625,36014.07675454167,0.372613251209259,0.1472775936126709,-0.03066656552255154,36014.11782554167,-30.96595764160156,-96.52891540527344,45.94874572753906,36014.15983854167,0.07365328554971111,-1.274442042606224,-0.1009004541347829,0.3681566119194031,-0.09530498832464218,-0.09346633404493332,0.2490742802619934,-0.09407650679349899,0.004340916872024536,2,-0.01862709187183084,-0.5952965897725071,0.05953816180590479,0.8010805579246473,-0.9515429735183716,0.1007293313741684,-0.2905499935150146,-21.28581619262695,-8.914939880371094,-21.48700714111328,-1,2,36012.3601285,1,2,1659870721.672624,0,0,0,0,0,0,0,0,0,36010.889423,0,-0.09249878,97.26263,1659870721.14605,0,172480399,0,0,1,1659870721.123361,1,0.27,0
1659870723.577462,25,1659870722.567154,28.62001662610188,77.37100079368427,206.2729,-1,-1,-1,-1,20.6275691986084,35,-9999,1659870723.572681,-21.29208374023438,-9.917648315429688,-21.21139526367188,234.1839904785156,232.9450988769531,15.39494132995605,36014.26558354167,-0.7984466552734375,0.0279388427734375,-0.2339019775390625,36014.17620254167,0.3690227866172791,-0.05882177129387856,-0.05028953403234482,36014.21787954167,-31.04031372070312,-97.62139892578125,46.38388061523438,36014.26054854167,0.09451139762368754,-1.274760009318941,-0.08062585231666958,0.02201240882277489,-0.004331319592893124,-0.2946729958057404,0.150887668132782,-0.0496547594666481,0.06484660506248474,2,-0.004264676216165497,-0.5954746427676912,0.06188905738417574,0.8009752574673725,-0.9533930420875549,0.08053852617740631,-0.2907835245132446,-21.29208374023438,-9.917648315429688,-21.21139526367188,-1,2,36012.3601285,1,2,1659870721.672624,0,0,0,0,0,0,0,0,0,36010.889423,0,-0.09249878,97.26263,1659870721.14605,0,172480399,0,0,1,1659870721.123361,1,0.27,0
1659870723.678064,26,1659870722.567154,28.62001662610188,77.37100079368427,206.2729,-1,-1,-1,-1,20.6275691986084,35,-9999,1659870723.673286,-21.30178833007812,-10.19736480712891,-21.22732543945312,234.8598175048828,233.6209259033203,15.39497852325439,36014.36503554167,-0.8909759521484375,0.0114898681640625,-0.258575439453125,36014.27565454167,0.01914866082370281,-0.07301455736160278,-0.2415186166763306,36014.31793554167,-31.05923461914062,-98.60662841796875,46.60067749023438,36014.36125854167,0.08937437934570931,-1.280548016887154,-0.07120811240142119,-0.2406518757343292,0.1070471405982971,0.07050865888595581,0.06721007823944092,-0.05901721119880676,0.0288119912147522,2,-0.001846494487568684,-0.5977157838566519,0.05704614579877415,0.7996737202437034,-0.9557445645332336,0.07114794850349426,-0.2854648530483246,-21.30178833007812,-10.19736480712891,-21.22732543945312,-1,2,36012.3601285,1,2,1659870721.672624,0,0,0,0,0,0,0,0,0,36010.889423,0,-0.09249878,97.26263,1659870721.14605,0,172480399,0,0,1,1659870721.123361,1,0.27,0
1659870723.778745,27,1659870722.567154,28.62001662610188,77.37100079368427,206.2729,-1,-1,-1,-1,20.6275691986084,35,-9999,1659870723.774184,-21.45779037475586,-9.306221008300781,-21.77230834960938,235.3548126220703,234.1159210205078,15.39502429962158,36014.46448754167,-1.228530883789062,-0.052825927734375,-0.37109375,36014.37510754167,-0.2980466187000275,0.1154261976480484,0.107856959104538,36014.41799154167,-31.0191650390625,-97.72137451171875,45.91554260253906,36014.46196854167,0.07041586613271109,-1.284049465089509,-0.084740718966301,-0.247757762670517,-0.4636455774307251,-0.1164471209049225,-0.245414137840271,-0.1533038914203644,-0.08698645234107971,2,-0.01284272463916603,-0.5991041865705574,0.05351521704072898,0.7987773013371988,-0.9557271003723145,0.08463933318853378,-0.2818184792995453,-21.45779037475586,-9.306221008300781,-21.77230834960938,-1,2,36012.3601285,1,2,1659870721.672624,0,0,0,0,0,0,0,0,0,36011.891656,0,-0.03436279,97.26196,1659870721.14605,0,172480399,0,0,1,1659870721.123361,1,0.27,0
1659870723.878249,28,1659870722.567154,28.62001662610188,77.37100079368427,206.2729,-1,-1,-1,-1,20.6275691986084,35,-9999,1659870723.874621,-21.25666427612305,-8.358047485351562,-22.66009140014648,239.1715545654297,237.9326629638672,15.39498233795166,36014.56393654167,-1.266433715820312,0.260162353515625,-0.373077392578125,36014.47455854167,-0.4167261123657227,-0.3904191553592682,-0.2656297981739044,36014.51804654167,-31.36627197265625,-96.93276977539062,45.86724853515625,36014.46196854167,0.07041586613271109,-1.284049465089509,-0.084740718966301,-0.247757762670517,-0.4636455774307251,-0.1164471209049225,-0.245414137840271,-0.1533038914203644,-0.08698645234107971,2,-0.01284272463916603,-0.5991041865705574,0.05351521704072898,0.7987773013371988,-0.9557271003723145,0.08463933318853378,-0.2818184792995453,-21.45779037475586,-9.306221008300781,-21.77230834960938,-1,2,36012.3601285,1,2,1659870721.672624,0,0,0,0,0,0,0,0,0,36011.891656,0,-0.03436279,97.26196,1659870721.14605,0,172480399,0,0,1,1659870721.123361,1,0.27,0
1659870723.975238,29,1659870722.567154,28.62001662610188,77.37100079368427,206.2729,-1,-1,-1,-1,20.6275691986084,35,-9999,1659870723.955326,-20.35747146606445,-8.750419616699219,-22.58366775512695,240.5617370605469,239.3228454589844,15.39498233795166,36014.66338854167,-0.89923095703125,0.13275146484375,-0.2264251708984375,36014.57400754167,-0.2830657958984375,0.6733190417289734,-0.2388019263744354,36014.61810054167,-30.01692199707031,-96.53883361816406,44.49977111816406,36014.56267854167,0.009518442158067894,-1.286751237928269,-0.07688365433098067,-0.4056569039821625,0.6935199499130249,-0.1279231458902359,-0.3163434267044067,0.1854754090309143,-0.09244364500045776,2,-0.0278954982735197,-0.599595946217987,0.02686020252302293,0.7993654519969754,-0.9570940136909485,0.07680793106555939,-0.2794130742549896,-21.25666427612305,-8.358047485351562,-22.66009140014648,-1,2,36012.3601285,1,2,1659870721.672624,0,0,0,0,0,0,0,0,0,36011.891656,0,-0.03436279,97.26196,1659870721.14605,0,172480399,0,0,1,1659870721.123361,1,0.27,0
1659870724.075939,30,1659870722.567154,28.62001662610188,77.37100079368427,206.2729,-1,-1,-1,-1,20.6275691986084,35,-9999,1659870724.056144,-19.49775695800781,-9.59967041015625,-22.79374313354492,242.4410705566406,241.2021789550781,15.39497184753418,36014.76284054167,-0.8007659912109375,0.0688323974609375,-0.2249908447265625,36014.67345954167,0.06302370876073837,0.06849384307861328,-0.4251925647258759,36014.71815254167,-29.25904846191406,-97.72749328613281,45.2166748046875,36014.66338854167,0.008194456275429177,-1.269791116876995,-0.03944565578050239,0.1885573267936707,0.04257582128047943,-0.4725521206855774,0.05506515502929688,0.09331604838371277,0.06982448697090149,2,-0.01344878979140884,-0.5930381756024788,0.01499479118354288,0.8049222416732343,-0.9542959332466125,0.03943542763590813,-0.2962497174739838,-20.22223281860352,-9.272682189941406,-22.68907165527344,-1,2,36012.3601285,1,2,1659870721.672624,0,0,0,0,0,0,0,0,0,36011.891656,0,-0.03436279,97.26196,1659870721.14605,0,172480399,0,0,1,1659870721.123361,1,0.27,0
1659870724.176726,31,1659870722.567154,28.62001662610188,77.37100079368427,206.2729,-1,-1,-1,-1,20.6275691986084,35,-9999,1659870724.156959,-19.50998687744141,-9.755439758300781,-23.10554504394531,242.0018005371094,240.7629089355469,15.3948450088501,36014.86229300001,-0.8401336669921875,-0.0771942138671875,-0.1841888427734375,36014.77291154167,-0.03857908397912979,0.1040310636162758,0.02445767261087894,36014.81821754167,-29.07052612304688,-97.81362915039062,44.26101684570312,36014.76409854167,-0.007770666989077547,-1.258207284072062,-0.02298661079521815,-0.07290081679821014,0.1064094007015228,0.04135560989379883,0.1482802033424377,0.0447491854429245,0.08239006996154785,2,-0.01157875012277429,-0.588340831937849,0.003621402306488969,0.8085220194171945,-0.951289176940918,0.0229845866560936,-0.3074420094490051,-19.54012680053711,-9.673049926757812,-23.03181457519531,-1,2,36012.3601285,1,2,1659870721.672624,0,0,0,0,0,0,0,0,0,36011.891656,0,-0.03436279,97.26196,1659870721.14605,0,172480399,0,0,1,1659870721.123361,1,0.27,0
1659870724.276113,32,1659870722.567154,28.62001662610188,77.37100079368427,206.2729,-1,-1,-1,-1,20.6275691986084,35,-9999,1659870724.257394,-19.44081497192383,-9.576316833496094,-23.01783752441406,241.7179412841797,240.4790496826172,15.39487457275391,36014.961742,-0.90185546875,-0.059661865234375,-0.2621612548828125,36014.872364,-0.001989115029573441,-0.06945843994617462,0.1182808354496956,36014.918278,-29.39945983886719,-97.61337280273438,44.83067321777344,36014.864809,0.003031908687759766,-1.262581988142673,-0.02635925923698824,0.04981460049748421,-0.1096202731132507,0.133408710360527,0.10789555311203,-0.1043896526098251,0.1172627806663513,2,-0.009744530860069128,-0.5901516223946415,0.009001890026297088,0.8071833889747001,-0.9525457620620728,0.02635620720684528,-0.3032522201538086,-19.64885330200195,-9.795211791992188,-23.08540725708008,-1,2,36012.3601285,1,2,1659870721.672624,0,0,0,0,0,0,0,0,0,36011.891656,0,-0.03436279,97.26196,1659870721.14605,0,172480399,0,0,1,1659870721.123361,1,0.27,0
1659870724.373175,33,1659870722.567154,28.62001662610188,77.37100079368427,206.2729,-1,-1,-1,-1,20.6275691986084,35,-9999,1659870724.358064,-18.97985076904297,-10.13254547119141,-23.23332214355469,240.5250854492188,239.2861938476562,15.39491844177246,36015.061194,-0.8631439208984375,-0.1630096435546875,-0.296630859375,36014.971813,0.01947463117539883,0.03089719638228416,0.0202738456428051,36015.018324,-28.90171813964844,-97.89346313476562,44.40547180175781,36014.965519,-0.001012313091159306,-1.255670886404025,-0.03365264548482229,0.004873013589531183,0.01141515001654625,0.03125006705522537,0.04338937997817993,-0.08834905922412872,0.05063539743423462,2,-0.01391418456508497,-0.5873042448140677,0.0094736451884746,0.8091911435105092,-0.9502191543579102,0.03364629298448563,-0.3097602427005768,-19.51858520507812,-9.492820739746094,-23.35821151733398,-1,2,36012.3601285,1,2,1659870721.672624,0,0,0,0,0,0,0,0,0,36011.891656,0,-0.03436279,97.26196,1659870721.14605,0,172480399,0,0,1,1659870721.123361,1,0.27,0
1659870724.475846,34,1659870722.567154,28.62001662610188,77.37100079368427,206.2729,-1,-1,-1,-1,20.6275691986084,35,-9999,1659870724.458801,-18.9917106628418,-10.40918731689453,-23.11395263671875,242.2130737304688,240.9741821289062,15.39495658874512,36015.160646,-1.0438232421875,0.1338958740234375,-0.5452423095703125,36015.071265,0.4756714701652527,-0.2481842339038849,0.05232605338096619,36015.118371,-29.08534240722656,-99.01918029785156,44.83503723144531,36015.066229,0.03086738135812913,-1.237545104763648,-0.03073143416544065,0.5288149118423462,-0.09499499946832657,0.05001347884535789,0.05122709274291992,-0.2001601904630661,0.01781955361366272,2,-0.003564110789808922,-0.5800913657722387,0.02148141783347327,0.8142602013707601,-0.9445375204086304,0.0307265967130661,-0.3269626200199127,-18.92425537109375,-10.42915344238281,-23.38976287841797,-1,2,36012.3601285,1,2,1659870721.672624,0,0,0,0,0,0,0,0,0,36011.891656,0,-0.03436279,97.26196,1659870721.14605,0,172480399,0,0,1,1659870721.123361,1,0.27,0
1659870724.574443,35,1659870722.567154,28.62001662610188,77.37100079368427,206.2729,-1,-1,-1,-1,20.6275691986084,35,-9999,1659870724.559751,-18.58178329467773,-10.73291778564453,-23.03697967529297,239.8717041015625,238.6328125,15.39482688903809,36015.260098,-1.041061401367188,0.1370697021484375,-0.3947601318359375,36015.170717,-0.0919317901134491,0.9027218818664551,0.3557591736316681,36015.218419,-27.85694885253906,-98.70574951171875,43.776123046875,36015.166939,-0.003925325809378534,-1.229948257927131,-0.01940986399447452,-0.1761717200279236,0.9850993752479553,0.3005597591400146,-0.07372766733169556,0.110687792301178,-0.2006733417510986,2,-0.009059015446062968,-0.5768935518903423,0.00399603566691531,0.8167593339652089,-0.9422940015792847,0.01940864510834217,-0.3342235386371613,-18.37590408325195,-10.3671875,-23.85043716430664,-1,2,36012.3601285,1,2,1659870721.672624,0,0,0,0,0,0,0,0,0,36011.891656,0,-0.03436279,97.26196,1659870721.14605,0,172480399,0,0,1,1659870721.123361,1,0.27,0
1659870724.675747,36,1659870722.567154,28.62001662610188,77.37100079368427,206.2729,-1,-1,-1,-1,20.6275691986084,35,-9999,1659870724.66026,-19.71868515014648,-12.27881622314453,-22.14845275878906,235.5083465576172,234.2694549560547,15.39472961425781,36015.359546,-0.785980224609375,0.0084686279296875,-0.3039093017578125,36015.270169,0.5326564311981201,-0.1203871294856071,0.3451933562755585,36015.318474,-29.2645263671875,-99.60885620117188,45.79743957519531,36015.267649,0.05191791459781372,-1.259683514705554,-0.02237024043875082,0.5533860325813293,-0.1731558442115784,0.3204597234725952,-0.0697290301322937,0.1064463406801224,-0.07065215706825256,2,0.006251899138585926,-0.5890162275375256,0.0275601725088542,0.8076268310461047,-0.9517552256584167,0.02236837521195412,-0.3060415983200073,-19.09762573242188,-11.13749694824219,-22.801025390625,-1,2,36012.3601285,1,2,1659870721.672624,0,0,0,0,0,0,0,0,0,36011.891656,0,-0.03436279,97.26196,1659870721.14605,0,172480399,0,0,1,1659870721.123361,1,0.27,0
1659870724.770813,37,1659870722.567154,28.62001662610188,77.37100079368427,206.2729,-1,-1,-1,-1,20.6275691986084,35,-9999,1659870724.760939,-21.1335334777832,-13.67572784423828,-20.08159637451172,231.7850952148438,230.5462036132812,15.39463329315186,36015.458998,-0.9222412109375,0.0486297607421875,-0.3108062744140625,36015.369617,0.7741721272468567,-0.3891022205352783,0.1938301920890808,36015.418542,-30.46086120605469,-101.5895843505859,47.34535217285156,36015.368359,0.1188656861327223,-1.265566907807372,-0.03861523054652816,0.7836002111434937,-0.3930011987686157,0.194178506731987,0.1656830310821533,-0.03460783883929253,-0.003026276826858521,2,0.01957993727085136,-0.5911621021562961,0.05928607895466897,0.8041325972996919,-0.9530670642852783,0.03860563412308693,-0.3002879917621613,-20.07815551757812,-12.34223937988281,-21.73722839355469,-1,2,36012.3601285,1,2,1659870721.672624,0,0,0,0,0,0,0,0,0,36011.891656,0,-0.03436279,97.26196,1659870721.14605,0,172480399,0,0,1,1659870721.123361,1,0.27,0
1659870724.873142,38,1659870722.567154,28.62001662610188,77.37100079368427,206.2729,-1,-1,-1,-1,20.6275691986084,35,-9999,1659870724.861675,-20.73120880126953,-14.10482025146484,-19.92144775390625,231.2594146728516,230.0205230712891,15.3946475982666,36015.55845,-0.9041900634765625,0.0583953857421875,-0.3438262939453125,36015.469069,0.2026495188474655,-0.07509315013885498,0.05104827135801315,36015.518611,-30.63902282714844,-102.0540008544922,47.84135437011719,36015.469069,0.1764644952244541,-1.305393224063153,-0.03313429781019978,0.2139112800359726,-0.07890888303518295,0.04722096771001816,0.02868145704269409,0.02746441587805748,-0.05016264319419861,2,0.04039938167645557,-0.6060451734564115,0.08001764343755144,0.7903633090841293,-0.9644570350646973,0.03312823548913002,-0.2621542811393738,-21.23233032226562,-14.03848266601562,-19.93606948852539,-1,2,36012.3601285,1,2,1659870721.672624,0,0,0,0,0,0,0,0,0,36012.894174,0,0.02114868,97.26131,1659870721.14605,0,172480399,0,0,1,1659870721.123361,1,0.27,0
1659870724.972283,39,1659870722.567154,28.62001662610188,77.37100079368427,206.2729,-1,-1,-1,-1,20.6275691986084,35,-9999,1659870724.962462,-20.23580169677734,-13.84352111816406,-20.20378494262695,230.3107147216797,229.0718231201172,15.39462375640869,36015.657903,-0.884674072265625,-0.0764007568359375,-0.2945709228515625,36015.568521,0.025161013007164,0.1571174412965775,0.04976169764995575,36015.618667,-29.95576477050781,-102.1568908691406,47.51437377929688,36015.569779,0.183931590911764,-1.290373736463049,-0.02972250041804332,0.03346258029341698,0.1557691246271133,0.04813440144062042,0.05665981769561768,0.01492908596992493,-0.06296014785766602,2,0.04339606310581817,-0.5998308282728099,0.0822665616236232,0.7947024490780621,-0.9605141282081604,0.02971812523901463,-0.2766395211219788,-20.71281433105469,-14.06594085693359,-19.99617385864258,-1,2,36012.3601285,1,2,1659870721.672624,0,0,0,0,0,0,0,0,0,36012.894174,0,0.02114868,97.26131,1659870721.14605,0,172480399,0,0,1,1659870721.123361,1,0.27,0
1659870725.071879,40,1659870722.567154,28.62001662610188,77.37100079368427,206.2729,-1,-1,-1,-1,20.6275691986084,35,-9999,1659870725.063073,-19.65520095825195,-13.89209747314453,-20.36909866333008,230.1231842041016,228.8842926025391,15.39465045928955,36015.757351,-0.8350067138671875,-0.1155853271484375,-0.2946319580078125,36015.667973,0.151340514421463,0.10493253916502,0.1663873791694641,36015.71873,-29.71864318847656,-102.0486907958984,47.84124755859375,36015.670489,0.1958998865942266,-1.270968601445299,-0.0428686713363165,0.1611410975456238,0.08926334977149963,0.1575006395578384,0.06690597534179688,-0.1269161999225616,0.01143860816955566,2,0.04086760815118962,-0.5922733291835915,0.09134527900261555,0.7994987416370074,-0.9545096755027771,0.04285554215312004,-0.2950842976570129,-20.20880508422852,-13.67241668701172,-20.48360061645508,-1,2,36012.3601285,1,2,1659870721.672624,0,0,0,0,0,0,0,0,0,36012.894174,0,0.02114868,97.26131,1659870721.14605,0,172480399,0,0,1,1659870721.123361,1,0.27,0
1659870725.168879,41,1659870722.567154,28.62001662610188,77.37100079368427,206.2729,-1,-1,-1,-1,20.6275691986084,35,-9999,1659870725.164057,-18.83265686035156,-12.46102905273438,-21.70518493652344,234.6184234619141,233.3795318603516,15.39468288421631,36015.856803,-1.098068237304688,0.080596923828125,-0.60577392578125,36015.767422,-0.09393475204706192,0.09548550844192505,-0.05573756247758865,36015.818787,-29.12210083007812,-101.3237915039062,46.83598327636719,36015.7712,0.1955734735281124,-1.262580047593847,-0.03629919552336631,-0.1014259904623032,0.02604230120778084,-0.02871022559702396,0.06435483694076538,-0.2242947816848755,-0.02572837471961975,2,0.04303024243783979,-0.5887007802269246,0.08946115712282723,0.8022320759884105,-0.9522483944892883,0.0362912230193615,-0.3031595647335052,-19.64123916625977,-13.74752807617188,-20.49752044677734,-1,2,36012.3601285,1,2,1659870721.672624,0,0,0,0,0,0,0,0,0,36012.894174,0,0.02114868,97.26131,1659870721.14605,0,172480399,0,0,1,1659870721.123361,1,0.27,0
1659870725.273917,42,1659870722.567154,28.62001662610188,77.37100079368427,206.2729,-1,-1,-1,-1,20.6275691986084,35,-9999,1659870725.26468,-17.54304885864258,-13.5802001953125,-21.70166778564453,233.1957550048828,231.9568634033203,15.39454650878906,36015.95625575,-1.054458618164062,0.0364227294921875,-0.2014312744140625,36015.86687475001,-0.1201679557561874,0.7395033836364746,0.1349572837352753,36015.91884875,-27.27302551269531,-100.8597259521484,45.67872619628906,36015.87191075,0.1201009871072534,-1.247694988252811,-0.03027536494772923,0.09968645125627518,0.745503306388855,0.2201807647943497,-0.1456698179244995,0.07916530966758728,-0.1754954755306244,2,0.02279045284369638,-0.5837798294726938,0.05753091731639129,0.8095503487626223,-0.9478206634521484,0.03027074038982391,-0.3173634111881256,-18.32410049438477,-12.08172607421875,-22.34333419799805,-1,2,36012.3601285,1,2,1659870721.672624,0,0,0,0,0,0,0,0,0,36012.894174,0,0.02114868,97.26131,1659870721.14605,0,172480399,0,0,1,1659870721.123361,1,0.27,0
1659870725.370201,43,1659870722.567154,28.62001662610188,77.37100079368427,206.2729,-1,-1,-1,-1,20.6275691986084,35,-9999,1659870725.36572,-16.02119445800781,-13.76567077636719,-22.49227523803711,235.6283264160156,234.3894348144531,15.39452934265137,36016.05570775001,-0.8235015869140625,0.071868896484375,-0.2766876220703125,36015.96632675,0.2302678227424622,0.1272266656160355,-0.4348244369029999,36016.01891175,-26.103515625,-102.2231750488281,45.79081726074219,36015.97262075,0.1727238866814358,-1.237676859021561,0.008061837719726505,0.1229727566242218,0.2239742875099182,-0.4356168806552887,-0.06492185592651367,0.06792199611663818,0.1391612887382507,2,0.0533061518106292,-0.5776395864104189,0.06792881056267563,0.8117120400804332,-0.9449960589408875,-0.008061750791966915,-0.3269819319248199,-17.46815872192383,-13.90909576416016,-21.44696426391602,-1,2,36012.3601285,1,2,1659870721.672624,0,0,0,0,0,0,0,0,0,36012.894174,0,0.02114868,97.26131,1659870721.14605,0,172480399,0,0,1,1659870721.123361,1,0.27,0
1659870725.467083,44,1659870722.567154,28.62001662610188,77.37100079368427,206.2729,-1,-1,-1,-1,20.6275691986084,35,-9999,1659870725.465948,-15.59577465057373,-14.16510009765625,-22.37046813964844,236.0156860351562,234.7767944335938,15.3943567276001,36016.15515675,-0.8231048583984375,-0.0324859619140625,-0.24786376953125,36016.06577875,0.01247850712388754,0.1387602835893631,-0.1709693521261215,36016.11897075,-25.27203369140625,-102.1717681884766,45.38778686523438,36016.07333075,0.1453128314781332,-1.207571021299181,0.02888262605203036,0.09987533837556839,0.1058303415775299,-0.146060049533844,0.1172730922698975,0.08054488897323608,0.08764088153839111,2,0.05306722391924457,-0.5653428049805471,0.05157403527873294,0.8215299731187868,-0.9343659281730652,-0.02887861058115959,-0.3551427721977234,-15.76066875457764,-13.97587585449219,-22.57724380493164,-1,2,36012.3601285,1,2,1659870721.672624,0,0,0,0,0,0,0,0,0,36012.894174,0,0.02114868,97.26131,1659870721.14605,0,172480399,0,0,1,1659870721.123361,1,0.27,0
1659870725.566573,45,1659870722.567154,28.62001662610188,77.37100079368427,206.2729,-1,-1,-1,-1,20.6275691986084,35,-9999,1659870725.546689,-15.4717378616333,-13.05216979980469,-23.04544067382812,236.1082153320312,234.8693237304688,15.39436912536621,36016.25460875,-0.8611297607421875,-0.07440185546875,-0.3597259521484375,36016.16522775,-0.2950723767280579,0.02518071979284286,-0.002638393780216575,36016.21902575,-25.12559509277344,-101.4384765625,44.75865173339844,36016.17404075,0.1422105991417284,-1.209636663157692,0.03464158095649201,-0.2972379326820374,0.055824164301157,0.03727089241147041,0.1109976172447205,-0.01013460755348206,0.06107878684997559,2,0.05460271366950903,-0.5660785152295982,0.04861011944800389,0.8211033416520352,-0.9349263906478882,-0.03463465347886086,-0.3531473278999329,-15.4666051864624,-14.00570678710938,-22.82861328125,-1,2,36012.3601285,1,2,1659870721.672624,0,0,0,0,0,0,0,0,0,36012.894174,0,0.02114868,97.26131,1659870721.14605,0,172480399,0,0,1,1659870721.123361,1,0.27,0
1659870725.672321,46,1659870722.567154,28.62001662610188,77.37100079368427,206.2729,-1,-1,-1,-1,20.6275691986084,35,-9999,1659870725.667185,-15.50638484954834,-12.962890625,-23.10757446289062,234.4951934814453,233.2563018798828,15.39440822601318,36016.35406075,-0.886077880859375,-0.0922393798828125,-0.3187103271484375,36016.26467975001,0.01172749605029821,-0.07592032849788666,0.2202024012804031,36016.31907875,-25.50389099121094,-100.840087890625,44.85244750976562,36016.27475075,0.1348950693070742,-1.208168091142738,0.009014967972544289,0.08139276504516602,-0.07056262344121933,0.1874812543392181,0.04822629690170288,-0.06851503252983093,-0.01556673645973206,2,0.04198266259428543,-0.5664612041241289,0.05291375299333725,0.8213154916224974,-0.9349296689033508,-0.009014845825731754,-0.3547183275222778,-15.63635349273682,-12.77422332763672,-23.16225814819336,-1,2,36012.3601285,1,2,1659870721.672624,0,0,0,0,0,0,0,0,0,36012.894174,0,0.02114868,97.26131,1659870721.14605,0,172480399,0,0,1,1659870721.123361,1,0.27,0
1659870725.76814,47,1659870722.567154,28.62001662610188,77.37100079368427,206.2729,-1,-1,-1,-1,20.6275691986084,35,-9999,1659870725.748143,-15.48114490509033,-13.34956359863281,-22.87260818481445,234.7240753173828,233.4851837158203,15.39442825317383,36016.45351275001,-1.147811889648438,0.0373077392578125,-0.4645233154296875,36016.36413175,0.2263926565647125,0.2006912976503372,0.04054609313607216,36016.41914275,-25.201171875,-101.2499542236328,44.94862365722656,36016.37546075,0.1573833487509849,-1.200043263698734,0.006939538938973803,0.2312531620264053,0.1152717769145966,-0.01639869809150696,0.07012444734573364,-0.1207460463047028,0.02209872007369995,2,0.0472427672297214,-0.5626844262837744,0.0629255075121033,0.8229184485428434,-0.9320323467254639,-0.006939483340829611,-0.3623087108135223,-15.40001392364502,-12.9747314453125,-23.11101150512695,-1,2,36012.3601285,1,2,1659870721.672624,0,0,0,0,0,0,0,0,0,36012.894174,0,0.02114868,97.26131,1659870721.14605,0,172480399,0,0,1,1659870721.123361,1,0.27,0
1659870725.865532,48,1659870722.567154,28.62001662610188,77.37100079368427,206.2729,-1,-1,-1,-1,20.6275691986084,35,-9999,1659870725.849051,-14.08255290985107,-12.41313934326172,-24.3391227722168,235.6396636962891,234.4007720947266,15.39440155029297,36016.55296075,-1.021347045898438,0.07208251953125,-0.47314453125,36016.46358375,-0.6071099042892456,0.529448926448822,-0.1810877621173859,36016.51920475,-23.83552551269531,-100.3345489501953,43.79524230957031,36016.47617075,0.1346155162607623,-1.207324658770142,0.02402038342332386,-0.4496705234050751,0.7777818441390991,0.0006082498002797365,-0.0979653000831604,0.01809767074882984,-0.182011216878891,2,0.04804133404371022,-0.565670147135426,0.04856398838772186,0.8217972304457332,-0.9343984723091125,-0.02401807345449924,-0.3554186224937439,-15.04878520965576,-12.71721649169922,-23.31685256958008,-1,2,36012.3601285,1,2,1659870721.672624,0,0,0,0,0,0,0,0,0,36013.896654,0,0.08190918,97.2606,1659870721.14605,0,172480399,0,0,1,1659870721.123361,1,0.27,0
1659870725.964369,49,1659870722.567154,28.62001662610188,77.37100079368427,206.2729,-1,-1,-1,-1,20.6275691986084,35,-9999,1659870725.949149,-14.48462772369385,-13.71901702880859,-23.70935821533203,234.1207122802734,232.8818206787109,15.39419937133789,36016.65241275,-0.83477783203125,0.0717010498046875,-0.36981201171875,36016.56303175,0.5243444442749023,-0.4228729605674744,0.01632384583353996,36016.61926075001,-24.12889099121094,-101.5660705566406,43.97305297851562,36016.57688075,0.1622019553695292,-1.200475025775739,0.02805074997587777,0.4446705877780914,-0.2747981548309326,0.03806044906377792,-0.1238349080085754,0.1210188865661621,-0.04730033874511719,2,0.0572895970355074,-0.5619889798954778,0.05894895771852213,0.8230499569902848,-0.9318443536758423,-0.02804707176983356,-0.3617725670337677,-14.37796688079834,-13.27963256835938,-23.58019256591797,-1,2,36012.3601285,1,2,1659870721.672624,0,0,0,0,0,0,0,0,0,36013.896654,0,0.08190918,97.2606,1659870721.14605,0,172480399,0,0,1,1659870721.123361,1,0.27,0
1659870726.066513,50,1659870722.567154,28.62001662610188,77.37100079368427,206.2729,-1,-1,-1,-1,20.6275691986084,35,-9999,1659870726.050393,-14.44108104705811,-15.06541442871094,-23.22124099731445,231.80126953125,230.5623779296875,15.39401912689209,36016.75186475,-0.800567626953125,-0.035064697265625,-0.3067169189453125,36016.66248375001,0.3206405937671661,-0.00177899154368788,0.02089276537299156,36016.71931975,-24.18331909179688,-102.5828704833984,44.63169860839844,36016.67759075001,0.1879365660814961,-1.198873065965233,0.0345144183359111,0.4648944437503815,-0.02758746035397053,0.06568056344985962,0.1431877613067627,0.08623486757278442,-0.002210825681686401,2,0.06711383333997137,-0.5602678278862783,0.0677668985729423,0.8228019981730027,-0.9310751557350159,-0.03450756520032883,-0.3631913959980011,-14.25533771514893,-14.02455139160156,-23.47245025634766,-1,2,36012.3601285,1,2,1659870721.672624,0,0,0,0,0,0,0,0,0,36013.896654,0,0.08190918,97.2606,1659870721.14605,0,172480399,0,0,1,1659870721.123361,1,0.27,0
1659870726.16585,51,1659870722.567154,28.62001662610188,77.37100079368427,206.2729,-1,-1,-1,-1,20.6275691986084,35,-9999,1659870726.150614,-14.87194728851318,-15.484375,-22.81491851806641,230.9196929931641,229.6808013916016,15.39402866363525,36016.85131675,-0.870635986328125,0.0079193115234375,-0.3582763671875,36016.76193575,0.2881305813789368,-0.1382188647985458,0.2038290202617645,36016.81936675,-24.7166748046875,-103.4680633544922,45.19384765625,36016.77830075,0.2364139011740336,-1.213373195038562,0.03386193339964687,0.1688128262758255,-0.1376022100448608,0.1471515744924545,0.0892338752746582,-8.00788402557373e-05,0.05202281475067139,2,0.08104080757529805,-0.5644483846561505,0.08728670562917079,0.8168301040714553,-0.9362644553184509,-0.03385546430945396,-0.3496608138084412,-14.82247447967529,-15.450439453125,-22.62720108032227,-1,2,36012.3601285,1,2,1659870721.672624,0,0,0,0,0,0,0,0,0,36013.896654,0,0.08190918,97.2606,1659870721.14605,0,172480399,0,0,1,1659870721.123361,1,0.27,0
1659870726.265889,52,1659870722.567154,28.62001662610188,77.37100079368427,206.2729,-1,-1,-1,-1,20.6275691986084,35,-9999,1659870726.251495,-14.74754619598389,-14.58412170410156,-23.95491409301758,231.7285614013672,230.4896697998047,15.3940601348877,36016.95076916667,-0.9393157958984375,-0.0267333984375,-0.4399261474609375,36016.86139216667,-0.3931470215320587,-0.001716407365165651,-0.03152330592274666,36016.91943516667,-24.5518798828125,-102.6988983154297,44.06011962890625,36016.87901416667,0.2196062784779857,-1.219023889564757,0.02871246537957917,-0.4126469790935516,0.04902245104312897,0.07860291004180908,0.07704848051071167,0.003027975559234619,-0.03874325752258301,2,0.07442578627651172,-0.5676712779470536,0.08167185213413938,0.8158062940561127,-0.9383766055107117,-0.02870852127671242,-0.3444202542304993,-14.65272235870361,-15.41615295410156,-23.19990921020508,-1,2,36012.3601285,1,2,1659870721.672624,0,0,0,0,0,0,0,0,0,36013.896654,0,0.08190918,97.2606,1659870721.14605,0,172480399,0,0,1,1659870721.123361,1,0.27,0
1659870726.36203,53,1659870722.567154,28.62001662610188,77.37100079368427,206.2729,-1,-1,-1,-1,20.6275691986084,35,-9999,1659870726.352506,-14.7664213180542,-14.73618316650391,-23.91548538208008,229.9132690429688,228.6743774414062,15.39408874511719,36017.05022116667,-1.080078125,0.0022735595703125,-0.408294677734375,36016.96084016667,-0.1585467606782913,0.4374234080314636,0.2751708626747131,36017.01948916667,-24.15509033203125,-102.603515625,43.45849609375,36016.97972416667,0.2016816505302705,-1.193083984726406,-0.003602741655701389,-0.00439750961959362,0.4293420016765594,0.3327640891075134,-0.01184046268463135,0.007688760757446289,-0.08611765503883362,2,0.0550721513480778,-0.5590802727281285,0.08428931446328541,0.8229772194802598,-0.9295046329498291,0.003602733835577965,-0.3687926232814789,-14.37740612030029,-14.51324462890625,-24.30431747436523,-1,2,36012.3601285,1,2,1659870721.672624,0,0,0,0,0,0,0,0,0,36013.896654,0,0.08190918,97.2606,1659870721.14605,0,172480399,0,0,1,1659870721.123361,1,0.27,0
1659870726.466855,54,1659870722.567154,28.62001662610188,77.37100079368427,206.2729,-1,-1,-1,-1,20.6275691986084,35,-9999,1659870726.452851,-14.92713642120361,-14.59568023681641,-24.8825798034668,232.0514221191406,230.8125305175781,15.39407730102539,36017.14967316667,-1.011306762695312,0.07843017578125,-0.368499755859375,36017.06029216667,-0.05086424574255943,-0.6104117035865784,-0.1913771480321884,36017.11954616667,-24.91094970703125,-102.6227111816406,43.55723571777344,36017.08043416667,0.2158617290602591,-1.209943256513589,-0.006617146241672305,-0.4791641235351562,-0.4269399046897888,-0.3911432027816772,-0.1787280440330505,0.1014914214611053,0.02141493558883667,2,0.05855950210499672,-0.5657193749248185,0.09047312341779729,0.8175248786421353,-0.9355754256248474,0.006617098115384579,-0.3530647456645966,-14.98523044586182,-15.2783203125,-23.9715461730957,-1,2,36012.3601285,1,2,1659870721.672624,0,0,0,0,0,0,0,0,0,36013.896654,0,0.08190918,97.2606,1659870721.14605,0,172480399,0,0,1,1659870721.123361,1,0.27,0
1659870726.563389,55,1659870722.567154,28.62001662610188,77.37100079368427,206.2729,-1,-1,-1,-1,20.6275691986084,35,-9999,1659870726.553474,-15.43736553192139,-14.36555480957031,-25.13152694702148,232.8730163574219,231.6341247558594,15.39377975463867,36017.24912516667,-0.9635467529296875,0.020416259765625,-0.284454345703125,36017.15974416667,-0.1623708009719849,0.1997631788253784,0.1768943518400192,36017.21959116667,-25.00798034667969,-102.6174774169922,42.57063293457031,36017.18114416667,0.1760536228126438,-1.196439315354868,-0.02482050333882421,-0.01370043586939573,-0.1841633170843124,-0.01133301574736834,-0.08280360698699951,-0.0262827891856432,0.02252861857414246,2,0.03929133849669797,-0.5618500270448408,0.07960241147513619,0.8224621711999214,-0.9304561614990234,0.02481795474886894,-0.3655614852905273,-14.98301792144775,-14.24583435058594,-25.2643928527832,-1,2,36012.3601285,1,2,1659870721.672624,0,0,0,0,0,0,0,0,0,36013.896654,0,0.08190918,97.2606,1659870721.14605,0,172480399,0,0,1,1659870721.123361,1,0.27,0
1659870726.659209,56,1659870722.567154,28.62001662610188,77.37100079368427,206.2729,-1,-1,-1,-1,20.6275691986084,35,-9999,1659870726.654506,-14.42305660247803,-13.64207458496094,-26.25071716308594,234.5255126953125,233.28662109375,15.39342498779297,36017.34857316667,-0.8759002685546875,0.0093231201171875,-0.3345947265625,36017.25919616667,-0.725502073764801,0.2304819375276566,-0.1453862190246582,36017.31964016667,-24.3885498046875,-101.4443359375,41.82568359375,36017.28185416667,0.1354390106334593,-1.20394997463994,-0.02577791234037,-0.6608633995056152,0.3312532305717468,0.01752466149628162,0.01730519533157349,-0.004107560962438583,-0.03156724572181702,2,0.02771645527604105,-0.5656453620839013,0.06305012481220507,0.8217674911138629,-0.933152973651886,0.02577505819499493,-0.3585542440414429,-14.9257173538208,-13.79628753662109,-25.68493270874023,-1,2,36012.3601285,1,2,1659870721.672624,0,0,0,0,0,0,0,0,0,36013.896654,0,0.08190918,97.2606,1659870721.14605,0,172480399,0,0,1,1659870721.123361,1,0.27,0
1659870726.759644,57,1659870722.567154,28.62001662610188,77.37100079368427,206.2729,-1,-1,-1,-1,20.6275691986084,35,-9999,1659870726.755121,-14.88318347930908,-15.103271484375,-25.36399459838867,234.2623291015625,233.0234375,15.39325714111328,36017.44802516667,-0.8387603759765625,-0.0350494384765625,-0.234832763671875,36017.35864416667,0.3433680236339569,-0.1026555374264717,-0.04153119772672653,36017.41969416667,-24.49797058105469,-102.9555969238281,42.30429077148438,36017.38256416667,0.1386992000941289,-1.190623715603294,-0.02548203276779199,0.3843613564968109,-0.2511529922485352,-0.07615908980369568,0.0668184757232666,-0.0535706914961338,0.1014747321605682,2,0.02833107315491137,-0.5601046581658717,0.06449634943749927,0.8254211925053778,-0.9282990097999573,0.0254792757332325,-0.3709602355957031,-14.62158870697021,-14.27376556396484,-25.64860153198242,-1,2,36012.3601285,1,2,1659870721.672624,0,0,0,0,0,0,0,0,0,36013.896654,0,0.08190918,97.2606,1659870721.14605,0,172480399,0,0,1,1659870721.123361,1,0.27,0
1659870726.865259,58,1659870722.567154,28.62001662610188,77.37100079368427,206.2729,-1,-1,-1,-1,20.6275691986084,35,-9999,1659870726.855845,-14.88917446136475,-15.08551788330078,-25.64070129394531,234.4974060058594,233.2585144042969,15.39327907562256,36017.54747716667,-0.9087066650390625,-0.0586395263671875,-0.327239990234375,36017.45809616667,-0.2818721532821655,0.1287108361721039,-0.04277622699737549,36017.51974416667,-24.48883056640625,-103.0272827148438,42.01249694824219,36017.48327416667,0.1331944054580831,-1.195698072727168,-0.01788272435464614,-0.2138360440731049,0.122082456946373,0.1122191548347473,0.09533137083053589,-0.06967011094093323,0.06271645426750183,2,0.03008210904084263,-0.562087520490854,0.06002448518578493,0.8243480665080916,-0.9303228259086609,0.01788177154958248,-0.3663053810596466,-14.63782787322998,-14.93547058105469,-25.66287231445312,-1,2,36012.3601285,1,2,1659870721.672624,0,0,0,0,0,0,0,0,0,36014.90032,0,0.1558838,97.25974,1659870721.14605,0,172480399,0,0,1,1659870721.123361,1,0.27,0
1659870726.961114,59,1659870722.567154,28.62001662610188,77.37100079368427,206.2729,-1,-1,-1,-1,20.6275691986084,35,-9999,1659870726.956434,-15.71135425567627,-15.87347412109375,-24.98490524291992,233.7972106933594,232.5583190917969,15.39331722259521,36017.64692916667,-0.942138671875,-0.078125,-0.324676513671875,36017.55754816667,0.09479202330112457,-0.2047488838434219,0.04907167330384254,36017.61979816667,-25.21078491210938,-103.6759185791016,42.46336364746094,36017.58398416667,0.1366828726476086,-1.204633357520726,-0.0241986467509804,0.1063343286514282,-0.2065550833940506,0.03278340399265289,0.01320767402648926,-0.08568921685218811,0.0318196713924408,2,0.02873945597163602,-0.5658699226605491,0.06310586944555951,0.8215733421806536,-0.9334345459938049,0.02419628575444221,-0.3579305410385132,-15.23379421234131,-15.40731048583984,-25.33418655395508,-1,2,36012.3601285,1,2,1659870721.672624,0,0,0,0,0,0,0,0,0,36014.90032,0,0.1558838,97.25974,1659870721.14605,0,172480399,0,0,1,1659870721.123361,1,0.27,0
1659870727.057298,60,1659870722.567154,28.62001662610188,77.37100079368427,206.2729,-1,-1,-1,-1,20.6275691986084,35,-9999,1659870727.036844,-16.00447845458984,-16.42971038818359,-24.80163192749023,233.7632446289062,232.5243530273438,15.39320755004883,36017.74637816667,-0.9703369140625,-0.0957489013671875,-0.34454345703125,36017.65700016667,0.05954774841666222,-0.03337979316711426,-0.009093097411096096,36017.71985716667,-25.7001953125,-104.4760437011719,43.071044921875,36017.68469416667,0.1456429379451019,-1.213770721539473,-0.02245986024414092,0.04376880452036858,0.0102090947329998,-0.06656250357627869,-0.001253604888916016,-0.08947458863258362,0.02605175971984863,2,0.03229169401585036,-0.5694355618000484,0.06614844918260374,0.8187335514592926,-0.9367040991783142,0.02245797216892242,-0.3494007885456085,-15.97669887542725,-16.12300872802734,-25.12399673461914,-1,2,36012.3601285,1,2,1659870721.672624,0,0,0,0,0,0,0,0,0,36014.90032,0,0.1558838,97.25974,1659870721.14605,0,172480399,0,0,1,1659870721.123361,1,0.27,0
1659870727.157445,61,1659870722.567154,28.62001662610188,77.37100079368427,206.2729,-1,-1,-1,-1,20.6275691986084,35,-9999,1659870727.137979,-16.14640045166016,-16.92226409912109,-24.62921142578125,236.3765258789062,235.1376342773438,15.39308166503906,36017.84583016667,-0.9630889892578125,0.063995361328125,-0.47320556640625,36017.75644916667,0.09106306731700897,-0.2769706249237061,-0.2825256884098053,36017.81993216667,-25.81614685058594,-104.9205017089844,43.07917785644531,36017.78540416667,0.1461999398149586,-1.228156514773773,-0.0004720422815792289,-0.3892503082752228,-0.503089427947998,-0.4035850167274475,-0.2181174159049988,0.06955054402351379,-0.06563678383827209,2,0.04189071391490692,-0.5746806821462738,0.05982740216861737,0.8151121803900615,-0.9418708682060242,0.0004720422730315477,-0.3359745740890503,-16.10024261474609,-17.25257110595703,-24.27022171020508,-1,2,36012.3601285,1,2,1659870721.672624,0,0,0,0,0,0,0,0,0,36014.90032,0,0.1558838,97.25974,1659870721.14605,0,172480399,0,0,1,1659870721.123361,1,0.27,0
1659870727.258653,62,1659870722.567154,28.62001662610188,77.37100079368427,206.2729,-1,-1,-1,-1,20.6275691986084,35,-9999,1659870727.238187,-16.15520858764648,-17.94234466552734,-24.04665374755859,234.8871154785156,233.6482238769531,15.39280796051025,36017.945282,-1.058029174804688,0.159820556640625,-0.37939453125,36017.85590116667,0.0186983197927475,0.6185250282287598,0.2317416220903397,36017.919983,-25.97967529296875,-106.0402526855469,43.9088134765625,36017.886114,0.1241167387481691,-1.19685487705225,0.0002115561106551217,0.5109764337539673,-0.2617772221565247,0.05311542004346848,-0.07551383972167969,0.1383341252803802,-0.1084981262683868,2,0.0350249988111746,-0.5622540323580162,0.05118164364404867,0.8246356761303001,-0.9308947324752808,-0.000211556107387878,-0.3652873039245605,-15.27882862091064,-17.0595703125,-24.81937026977539,-1,2,36012.3601285,1,2,1659870721.672624,0,0,0,0,0,0,0,0,0,36014.90032,0,0.1558838,97.25974,1659870721.14605,0,172480399,0,0,1,1659870721.123361,1,0.27,0
1659870727.35874,63,1659870722.567154,28.62001662610188,77.37100079368427,206.2729,-1,-1,-1,-1,20.6275691986084,35,-9999,1659870727.339603,-16.84146118164062,-19.375732421875,-22.41754531860352,231.7818603515625,230.54296875,15.39273166656494,36018.044734,-0.827545166015625,0.0279541015625,-0.2970123291015625,36017.955353,0.4517903625965118,-0.1541749238967896,0.08350154757499695,36018.020034,-26.6007080078125,-107.4137573242188,45.41767883300781,36017.986824,0.1797780962275291,-1.23176552969422,0.01411589564603899,0.3916285932064056,0.2551988661289215,0.3276492655277252,0.01636302471160889,0.1039439141750336,-0.003931522369384766,2,0.05759369908645903,-0.5748155686586162,0.06921184708286607,0.8133139807740579,-0.9429833889007568,-0.01411542668938637,-0.3325400650501251,-16.71163558959961,-19.09659576416016,-22.9147834777832,-1,2,36012.3601285,1,2,1659870721.672624,0,0,0,0,0,0,0,0,0,36014.90032,0,0.1558838,97.25974,1659870721.14605,0,172480399,0,0,1,1659870721.123361,1,0.27,0
1659870727.454732,64,1659870722.567154,28.62001662610188,77.37100079368427,206.2729,-1,-1,-1,-1,20.6275691986084,35,-9999,1659870727.439588,-18.04379653930664,-21.51494598388672,-19.9919548034668,228.2398071289062,227.0009155273438,15.3924388885498,36018.144182,-0.8704986572265625,0.0238494873046875,-0.2977294921875,36018.054805,0.7725697159767151,-0.2241955548524857,0.2068115025758743,36018.12008,-27.77215576171875,-109.6113433837891,47.94256591796875,36018.08753400001,0.2498050191054451,-1.235862494915411,0.01405540067122288,0.761646568775177,-0.390952080488205,0.1274183392524719,0.1017484664916992,0.004075676202774048,0.04754626750946045,2,0.07785597273067069,-0.5741091774119266,0.09749862515539001,0.8092163288556089,-0.9443387389183044,-0.01405493821948767,-0.3286741971969604,-17.4797477722168,-20.76778411865234,-21.27458190917969,-1,2,36012.3601285,1,2,1659870721.672624,0,0,0,0,0,0,0,0,0,36014.90032,0,0.1558838,97.25974,1659870721.14605,0,172480399,0,0,1,1659870721.123361,1,0.27,0
1659870727.556542,65,1659870722.567154,28.62001662610188,77.37100079368427,206.2729,-1,-1,-1,-1,20.6275691986084,35,-9999,1659870727.540649,-18.09339904785156,-22.75108337402344,-19.12931823730469,228.4051666259766,227.1662750244141,15.39239883422852,36018.243634,-0.8732757568359375,0.03656005859375,-0.3943328857421875,36018.154253,0.2411881238222122,-0.1562239527702332,-0.1408141106367111,36018.220138,-27.79927062988281,-110.8759155273438,48.6343994140625,36018.188244,0.2847401365078763,-1.25800800765345,0.03389998701515662,0.07356265187263489,-0.01879938878118992,-0.1402887403964996,0.09012335538864136,0.05681222677230835,-0.04523193836212158,2,0.09703396524902719,-0.5803588326947801,0.1048464348924842,0.8017326875837559,-0.9509326219558716,-0.03389349579811096,-0.3075360655784607,-18.11688232421875,-22.20794677734375,-19.05271148681641,-1,2,36012.3601285,1,2,1659870721.672624,0,0,0,0,0,0,0,0,0,36014.90032,0,0.1558838,97.25974,1659870721.14605,0,172480399,0,0,1,1659870721.123361,1,0.27,0
1659870727.656408,66,1659870722.567154,28.62001662610188,77.37100079368427,206.2729,-1,-1,-1,-1,20.6275691986084,35,-9999,1659870727.641071,-17.77952575683594,-22.74813079833984,-19.35398101806641,228.6914672851562,227.4525756835938,15.39240837097168,36018.343086,-0.8877105712890625,-0.006866455078125,-0.398529052734375,36018.253705,-0.03618836402893066,0.102079764008522,-0.1058758348226547,36018.320192,-27.49302673339844,-110.7982177734375,48.39765930175781,36018.288954,0.2803363392500804,-1.251079184836486,0.04410979332652357,-0.03210876509547234,0.1235431954264641,-0.02042423747479916,0.07655960321426392,0.0711798369884491,-0.09320378303527832,2,0.09948691995643963,-0.577153520534326,0.1004414752108256,0.8043056964701933,-0.9484009742736816,-0.0440954901278019,-0.3139923214912415,-17.88359069824219,-22.48918151855469,-19.15018463134766,-1,2,36012.3601285,1,2,1659870721.672624,0,0,0,0,0,0,0,0,0,36014.90032,0,0.1558838,97.25974,1659870721.14605,0,172480399,0,0,1,1659870721.123361,1,0.27,0
1659870727.757126,67,1659870722.567154,28.62001662610188,77.37100079368427,206.2729,-1,-1,-1,-1,20.6275691986084,35,-9999,1659870727.74185,-17.53011322021484,-22.78009033203125,-18.95380401611328,227.5411834716797,226.3022918701172,15.39240550994873,36018.442538,-0.9551239013671875,-0.0953216552734375,-0.3333587646484375,36018.35315700001,0.07614563405513763,0.1700875759124756,0.05545926466584206,36018.42025,-27.39811706542969,-110.7993469238281,48.68858337402344,36018.389664,0.2879530804285971,-1.235504924151559,0.0407854986991316,0.1590876877307892,0.1671366542577744,0.09175454825162888,0.07345777750015259,0.02566802501678467,-0.03737920522689819,2,0.09953743562950751,-0.5707074043308531,0.1052491889013351,0.8082746654411516,-0.9435291290283203,-0.04077419266104698,-0.3287707269191742,-17.62584686279297,-22.72175598144531,-19.1992301940918,-1,2,36012.3601285,1,2,1659870721.672624,0,0,0,0,0,0,0,0,0,36014.90032,0,0.1558838,97.25974,1659870721.14605,0,172480399,0,0,1,1659870721.123361,1,0.27,0
1659870727.852512,68,1659870722.567154,28.62001662610188,77.37100079368427,206.2729,-1,-1,-1,-1,20.6275691986084,35,-9999,1659870727.842352,-17.03638076782227,-22.32141876220703,-20.21276473999023,230.446044921875,229.2071533203125,15.39241504669189,36018.541986,-0.9539031982421875,0.10040283203125,-0.47283935546875,36018.452609,0.1987623572349548,-0.1820779293775558,-0.0871194526553154,36018.520302,-26.99641418457031,-110.8084106445312,47.76998901367188,36018.490374,0.2928938059473051,-1.244253309234429,0.05056613721264828,-0.7289012670516968,-0.1307913362979889,-0.4990614652633667,-0.1575846076011658,0.1488722562789917,0.02925342321395874,2,0.1053361437559454,-0.5733445609637737,0.1039711069642606,0.8058351208660111,-0.945946216583252,-0.05054458975791931,-0.3203606307506561,-17.72157669067383,-23.05997467041016,-18.94011306762695,-1,2,36012.3601285,1,2,1659870721.672624,0,0,0,0,0,0,0,0,0,36015.902188,0,0.2245789,97.25892,1659870721.14605,0,172480399,0,0,1,1659870721.123361,1,0.27,0
1659870727.957311,69,1659870722.567154,28.62001662610188,77.37100079368427,206.2729,-1,-1,-1,-1,20.6275691986084,35,-9999,1659870727.94333,-16.98050689697266,-22.34033203125,-20.19841003417969,226.5619201660156,225.3230285644531,15.3924036026001,36018.641438,-1.019058227539062,-0.043853759765625,-0.2266693115234375,36018.552057,-0.3825620114803314,0.9699584245681763,0.5437368154525757,36018.62035,-26.75071716308594,-110.1869201660156,47.17304992675781,36018.591083,0.2581359298810242,-1.174556225505641,0.01650899542428044,0.6846317052841187,0.3600429892539978,0.547019898891449,-0.04242020845413208,0.05866828560829163,0.02557885646820068,2,0.07812962383866667,-0.5485852838755941,0.1026054717730721,0.8260883829929933,-0.9223929047584534,-0.01650824584066868,-0.3858999013900757,-16.54257583618164,-21.34638214111328,-21.58896255493164,-1,2,36012.3601285,1,2,1659870721.672624,0,0,0,0,0,0,0,0,0,36015.902188,0,0.2245789,97.25892,1659870721.14605,0,172480399,0,0,1,1659870721.123361,1,0.27,0
1659870728.054152,70,1659870722.567154,28.62001662610188,77.37100079368427,206.2729,-1,-1,-1,-1,20.6275691986084,35,-9999,1659870728.044006,-17.43955993652344,-23.71510314941406,-19.14073181152344,225.9745025634766,224.7356109619141,15.39236640930176,36018.74089,-0.97357177734375,0.0281524658203125,-0.331085205078125,36018.651509,0.9120096564292908,-0.5990589261054993,-0.08389143645763397,36018.720403,-27.48272705078125,-111.8775634765625,48.74421691894531,36018.69179300001,0.3353107283447926,-1.212152043379331,0.04051246580349146,0.04507854580879211,-0.1453794240951538,-0.1754113137722015,-0.04976153373718262,0.01437834277749062,0.172814816236496,2,0.1114519104387088,-0.5587664525561745,0.1257451185295078,0.8121246719778593,-0.9356051087379456,-0.04050138592720032,-0.3507170379161835,-17.76515197753906,-23.94487762451172,-18.32518005371094,-1,2,36012.3601285,1,2,1659870721.672624,0,0,0,0,0,0,0,0,0,36015.902188,0,0.2245789,97.25892,1659870721.14605,0,172480399,0,0,1,1659870721.123361,1,0.27,0
1659870728.15436,71,1659870722.567154,28.62001662610188,77.37100079368427,206.2729,-1,-1,-1,-1,20.6275691986084,35,-9999,1659870728.144657,-16.87609100341797,-23.84491729736328,-19.65637588500977,225.8120574951172,224.5731658935547,15.39230823516846,36018.840342,-0.8988189697265625,-0.018096923828125,-0.318634033203125,36018.75096100001,-0.3748519122600555,0.4200769066810608,-0.003983822651207447,36018.820457,-26.82893371582031,-111.7659301757812,47.88307189941406,36018.792503,0.3127592774621554,-1.183359716984671,0.03695645300054416,0.1489810645580292,0.07221519947052002,-0.01987867429852486,0.0008557438850402832,0.07027325034141541,-0.01048803329467773,2,0.1020008190195356,-0.5484675863738058,0.1190654253242403,0.8213419053302291,-0.925248384475708,-0.03694804012775421,-0.3775582909584045,-16.927001953125,-23.43273162841797,-19.84518814086914,-1,2,36012.3601285,1,2,1659870721.672624,0,0,0,0,0,0,0,0,0,36015.902188,0,0.2245789,97.25892,1659870721.14605,0,172480399,0,0,1,1659870721.123361,1,0.27,0
1659870728.250407,72,1659870722.567154,28.62001662610188,77.37100079368427,206.2729,-1,-1,-1,-1,20.6275691986084,35,-9999,1659870728.245471,-17.41245651245117,-24.89305114746094,-18.52317810058594,224.194091796875,222.9552001953125,15.39229106903076,36018.9397875,-0.9166412353515625,-0.0426025390625,-0.3220977783203125,36018.850413,0.5531116724014282,-0.2274853587150574,0.09402316808700562,36018.9205165,-27.44084167480469,-112.8270568847656,49.15542602539062,36018.89320950001,0.3557809985858522,-1.198206060805781,0.04778807875099982,0.2147068530321121,-0.1007529348134995,0.05289903655648232,0.023418128490448,-0.0267539881169796,0.1054196059703827,2,0.1191755509871116,-0.5513532469362136,0.1328340834032842,0.8149611923430599,-0.9303241372108459,-0.04776989296078682,-0.3636135756969452,-17.46936798095703,-24.62795257568359,-18.50994110107422,-1,2,36012.3601285,1,2,1659870721.672624,0,0,0,0,0,0,0,0,0,36015.902188,0,0.2245789,97.25892,1659870721.14605,0,172480399,0,0,1,1659870721.123361,1,0.27,0
1659870728.355264,73,1659870722.567154,28.62001662610188,77.37100079368427,206.2729,-1,-1,-1,-1,20.6275691986084,35,-9999,1659870728.346193,-17.66618347167969,-25.29483032226562,-18.31573104858398,222.8654479980469,221.6265563964844,15.39229965209961,36019.0392395,-0.9273529052734375,-0.0166168212890625,-0.356201171875,36018.9498585,0.01966211758553982,0.1548899859189987,0.06229506433010101,36019.0205765,-27.43754577636719,-113.3501129150391,49.24923706054688,36018.9939195,0.3690472661333374,-1.192764380670393,0.04551716255880035,0.3476582765579224,-0.04699604958295822,0.06755602359771729,0.01712965965270996,0.01408359408378601,0.004207789897918701,2,0.1215329960124364,-0.5485205823479129,0.1392013137965048,0.8154617467554489,-0.9284301996231079,-0.04550144821405411,-0.3687098026275635,-17.58560943603516,-25.05087280273438,-18.63986587524414,-1,2,36012.3601285,1,2,1659870721.672624,0,0,0,0,0,0,0,0,0,36015.902188,0,0.2245789,97.25892,1659870721.14605,0,172480399,0,0,1,1659870721.123361,1,0.27,0
1659870728.451842,74,1659870722.567154,28.62001662610188,77.37100079368427,206.2729,-1,-1,-1,-1,20.6275691986084,35,-9999,1659870728.446767,-17.94655227661133,-26.88750457763672,-16.62369155883789,220.3082885742188,219.0693969726562,15.39230918884277,36019.1386905,-1.049896240234375,-0.0208740234375,-0.3435516357421875,36019.0493105,0.5156527161598206,0.07581114023923874,0.1108455583453178,36019.1206285,-27.80400085449219,-114.6078796386719,51.0018310546875,36019.0946295,0.4215357920097889,-1.192140647541877,0.05547994723572406,0.6325516700744629,0.02237840741872787,0.1070143505930901,-0.03846889734268188,0.004868596792221069,0.009804129600524902,2,0.139849990447224,-0.5439581971512873,0.1578389435695439,0.8121811943569384,-0.9277327656745911,-0.05545148998498917,-0.3691029250621796,-17.82829284667969,-26.10433959960938,-17.63243865966797,-1,2,36012.3601285,1,2,1659870721.672624,0,0,0,0,0,0,0,0,0,36015.902188,0,0.2245789,97.25892,1659870721.14605,0,172480399,0,0,1,1659870721.123361,1,0.27,0
1659870728.556292,75,1659870722.567154,28.62001662610188,77.37100079368427,206.2729,-1,-1,-1,-1,20.6275691986084,35,-9999,1659870728.547563,-17.10440444946289,-27.51468658447266,-16.98821258544922,219.9043121337891,218.6654205322266,15.39226150512695,36019.23814250001,-0.8914794921875,-0.0147247314453125,-0.37286376953125,36019.1487615,0.08497267961502075,-0.0190541185438633,-0.1843717098236084,36019.2206825,-27.113525390625,-115.4141082763672,50.60710144042969,36019.1953395,0.4407886729393068,-1.18838913011912,0.07289590676011191,0.1534636467695236,0.4517009258270264,-0.004045577254146338,-0.03012388944625854,0.0672619417309761,-0.0398387610912323,2,0.1517719002778321,-0.5393360441827906,0.1611164486692368,0.8124797159744739,-0.9253050684928894,-0.07283136248588562,-0.3721638321876526,-17.63059997558594,-27.25575256347656,-17.07363128662109,-1,2,36012.3601285,1,2,1659870721.672624,0,0,0,0,0,0,0,0,0,36015.902188,0,0.2245789,97.25892,1659870721.14605,0,172480399,0,0,1,1659870721.123361,1,0.27,0
1659870728.64842,76,1659870728.573171,28.62002186989133,77.37101044609012,206.2835,-1,-1,-1,-1,20.64662170410156,35,-9999,1659870728.627876,-17.18327713012695,-29.18052673339844,-15.40621185302734,218.7095184326172,217.4706268310547,15.39223766326904,36019.3375915,-0.8740692138671875,-0.0498504638671875,-0.31195068359375,36019.2482135,0.7064700722694397,-0.0736561119556427,-0.07306995242834091,36019.3207435,-27.03947448730469,-117.3286437988281,52.61042785644531,36019.2960495,0.4921637183745432,-1.191178661745268,0.1016692930810705,0.5235635638237,-0.3222208023071289,-0.1803004294633865,0.02906697988510132,0.05049934983253479,0.09696900844573975,2,0.1772820009250256,-0.5331464930948979,0.1737536795907062,0.808786449626242,-0.9240100979804993,-0.1014942303299904,-0.368651807308197,-17.07871627807617,-28.87799835205078,-15.64004516601562,-1,2,36012.3601285,1,2,1659870721.672624,0,0,0,0,0,0,0,0,0,36015.902188,0,0.2245789,97.25892,1659870721.14605,0,172480399,0,0,1,1659870721.123361,1,0.27,0
1659870728.757647,77,1659870728.573171,28.62002186989133,77.37101044609012,206.2835,-1,-1,-1,-1,20.64662170410156,35,-9999,1659870728.749068,-17.82908630371094,-28.87848663330078,-15.88744735717773,217.8426666259766,216.6037750244141,15.39224433898926,36019.4370435,-0.9213714599609375,-0.0784454345703125,-0.47607421875,36019.3476625,-0.2087486833333969,-0.09606075286865234,0.02593492716550827,36019.4208005,-27.49481201171875,-117.0118255615234,51.55258178710938,36019.3967595,0.4890901703277357,-1.199727707160406,0.09766304068146818,-0.09759856015443802,0.1219050958752632,0.2921583354473114,0.004098653793334961,0.03937190771102905,-0.1036702990531921,2,0.1756096732619862,-0.5373262072856702,0.1728704448605534,0.8065714650246203,-0.9274994134902954,-0.09750786423683167,-0.3608835935592651,-17.55638122558594,-29.04248809814453,-16.00090789794922,-1,2,36012.3601285,1,2,1659870721.672624,0,0,0,0,0,0,0,0,0,36015.902188,0,0.2245789,97.25892,1659870721.14605,0,172480399,0,0,1,1659870721.123361,1,0.27,0
1659870728.849513,78,1659870728.573171,28.62002186989133,77.37101044609012,206.2835,-1,-1,-1,-1,20.64662170410156,35,-9999,1659870728.829485,-19.08441925048828,-29.8104248046875,-14.1812744140625,214.7509765625,213.5120849609375,15.39225196838379,36019.5364955,-0.899261474609375,-0.0732421875,-0.310211181640625,36019.4471145,0.5876855850219727,-0.1827282756567001,0.2537603676319122,36019.5208545,-29.16448974609375,-117.8241729736328,53.9771728515625,36019.49746950001,0.5421104680507363,-1.219201808125406,0.08888158883062663,0.5689706206321716,-0.270412266254425,0.3141618967056274,0.0509788990020752,-0.02102234959602356,0.01927471160888672,2,0.1882394330803949,-0.5413391157762363,0.194796731893959,0.7959724082589837,-0.9351188540458679,-0.08876460790634155,-0.3430357575416565,-18.67958450317383,-29.78815460205078,-14.5931396484375,-1,2,36012.3601285,1,2,1659870721.672624,0,0,0,0,0,0,0,0,0,36016.906037,0,0.298584,97.25809,1659870721.14605,0,172480399,0,0,1,1659870721.123361,1,0.27,0
1659870728.95668,79,1659870728.573171,28.62002186989133,77.37101044609012,206.2835,-1,-1,-1,-1,20.64662170410156,35,-9999,1659870728.950343,-21.21657180786133,-29.88771820068359,-12.8402099609375,210.5206146240234,209.2817230224609,15.39227390289307,36019.6359465,-0.9441375732421875,-0.0461883544921875,-0.3955230712890625,36019.5465665,0.2082352340221405,-0.06989838927984238,0.3986837267875671,36019.6209095,-31.00180053710938,-117.7644653320312,54.6021728515625,36019.5981795,0.5834661126181454,-1.237166973106018,0.06176798300094475,0.2888331413269043,-0.2719327807426453,0.4447840750217438,0.02629488706588745,0.03340840712189674,-0.05153754353523254,2,0.1907959406008871,-0.547879518752213,0.2170567276114786,0.7850549215499778,-0.9430581331253052,-0.06172871217131615,-0.3268498778343201,-20.4194450378418,-29.97846221923828,-13.5287971496582,-1,2,36012.3601285,1,2,1659870721.672624,0,0,0,0,0,0,0,0,0,36016.906037,0,0.298584,97.25809,1659870721.14605,0,172480399,0,0,1,1659870721.123361,1,0.27,0
1659870729.04571,80,1659870728.573171,28.62002186989133,77.37101044609012,206.2835,-1,-1,-1,-1,20.64662170410156,35,-9999,1659870729.030786,-23.01068878173828,-30.04494476318359,-11.44306945800781,207.1695098876953,205.9306182861328,15.39228916168213,36019.7353955,-0.9494781494140625,-0.0840606689453125,-0.375396728515625,36019.6460175,0.4577478468418121,-0.2769101560115814,0.4670119285583496,36019.7209635,-33.16169738769531,-117.9157409667969,56.82411193847656,36019.6988885,0.6374311164977643,-1.265376885661913,0.03430656891443108,0.4172733426094055,-0.1972973197698593,0.3620140850543976,0.008213460445404053,-0.05314826592803001,-0.068593829870224,2,0.1983953769034665,-0.5571186002276,0.2430269464572338,0.7688926754793363,-0.9531596899032593,-0.03429983928799629,-0.300516277551651,-22.64626693725586,-30.14980316162109,-11.76986694335938,-1,2,36012.3601285,1,2,1659870721.672624,0,0,0,0,0,0,0,0,0,36016.906037,0,0.298584,97.25809,1659870721.14605,0,172480399,0,0,1,1659870721.123361,1,0.27,0
1659870729.146973,81,1659870728.573171,28.62002186989133,77.37101044609012,206.2835,-1,-1,-1,-1,20.64662170410156,35,-9999,1659870729.132227,-24.65912628173828,-30.43058776855469,-9.383434295654297,202.9863891601562,201.7474975585938,15.39230060577393,36019.8348475,-0.891387939453125,-0.0643310546875,-0.36663818359375,36019.7454665,0.4372742772102356,-0.1192145422101021,0.3534960150718689,36019.82101650001,-34.58868408203125,-118.55859375,58.58659362792969,36019.7995985,0.6934075269808655,-1.280579283984022,0.01509731083151566,0.6119627952575684,-0.1025306880474091,0.3278999030590057,0.03497689962387085,-0.0641573965549469,-0.08363869786262512,2,0.2086930688800618,-0.5598065740580827,0.2682438360729892,0.7557176306346904,-0.9580726623535156,-0.01509673707187176,-0.2861275970935822,-24.27226638793945,-30.37542724609375,-9.821388244628906,-1,2,36012.3601285,1,2,1659870721.672624,1659870697.174657,8,1.322701,0,0,5.68,0,0,1659870729.09196,36016.906037,0,0.298584,97.25809,1659870721.14605,0,172480399,0,0,1,1659870721.123361,1,0.27,0
1659870729.247171,82,1659870728.573171,28.62002186989133,77.37101044609012,206.2835,-1,-1,-1,-1,20.64662170410156,35,-9999,1659870729.232159,-27.1406364440918,-31.32395935058594,-5.709465026855469,196.4104766845703,195.1715850830078,15.39232349395752,36019.934302375,-0.929046630859375,-0.0771636962890625,-0.41802978515625,36019.8449185,0.7387529015541077,-0.1942304670810699,0.4092247784137726,36019.921077375,-36.98736572265625,-119.3474578857422,62.35015869140625,36019.900311375,0.781803187792097,-1.302251791552878,-0.005501400801316426,0.9614608287811279,-0.3134628236293793,0.595894455909729,0.07287764549255371,-0.08637294173240662,-0.1307785511016846,2,0.2289070897345467,-0.5611945805249654,0.3046059929500546,0.7347633754312383,-0.9641433954238892,0.005501373205333948,-0.2653243839740753,-26.25788879394531,-31.29299163818359,-6.921714782714844,-1,2,36012.3601285,1,2,1659870721.672624,1659870697.174657,8,1.322701,0,0,5.68,0,0,1659870729.09196,36016.906037,0,0.298584,97.25809,1659870721.14605,0,172480399,0,0,1,1659870721.123361,1,0.27,0
1659870729.348944,83,1659870728.573171,28.62002186989133,77.37101044609012,206.2835,-1,-1,-1,-1,20.64662170410156,35,-9999,1659870729.333083,-30.25790786743164,-32.12550354003906,-0.3831863403320312,186.6087646484375,185.369873046875,15.39235877990723,36020.033753375,-0.958831787109375,-0.0113677978515625,-0.4421234130859375,36019.944373375,1.06506073474884,-0.2185672223567963,0.6942429542541504,36020.021131375,-40.05165100097656,-120.2332763671875,67.68992614746094,36020.001021375,0.9097251905600766,-1.322303121874391,-0.04429253591850163,1.45862865447998,-0.2697817385196686,0.7847198247909546,0.03187114000320435,-0.08204352855682373,-0.2127325981855392,2,0.2539983034734002,-0.559136485855249,0.3588935748865564,0.7028844773554306,-0.9683334231376648,0.04427805542945862,-0.2457025051116943,-29.65439605712891,-31.89829254150391,-1.786506652832031,-1,2,36012.3601285,1,2,1659870721.672624,1659870697.174657,8,1.322701,0,0,5.68,0,0,1659870729.09196,36016.906037,0,0.298584,97.25809,1659870721.14605,0,172480399,0,0,1,1659870721.123361,1,0.27,0
1659870729.443608,84,1659870728.573171,28.62002186989133,77.37101044609012,206.2835,-1,-1,-1,-1,20.64662170410156,35,-9999,1659870729.433669,-33.23627090454102,-32.799560546875,8.157699584960938,174.5579071044922,173.3190155029297,15.39239883422852,36020.133202375,-0.956573486328125,0.0178680419921875,-0.3889007568359375,36020.043824375,1.716914057731628,-0.4150086343288422,0.7082937955856323,36020.121187375,-43.04440307617188,-120.8624267578125,76.35844421386719,36020.10173137501,1.091587567158496,-1.347137147249296,-0.07667220757783288,1.697075963020325,-0.2472724169492722,0.7644231915473938,0.02253592014312744,-0.07893168926239014,-0.1851025819778442,2,0.2979598181962034,-0.5483121353884213,0.4258622474066669,0.6551449964722829,-0.9722275733947754,0.07659710943698883,-0.2211474925279617,-32.77366256713867,-32.66407775878906,6.283729553222656,-1,2,36012.3601285,1,2,1659870721.672624,1659870697.174657,8,1.322701,0,0,5.68,0,0,1659870729.09196,36016.906037,0,0.298584,97.25809,1659870721.14605,0,172480399,0,0,1,1659870721.123361,1,0.27,0
1659870729.549492,85,1659870728.573171,28.62002186989133,77.37101044609012,206.2835,-1,-1,-1,-1,20.64662170410156,35,-9999,1659870729.53462,-34.86148834228516,-32.33020782470703,17.11228942871094,164.6264343261719,163.3875427246094,15.39242362976074,36020.232654375,-0.9165191650390625,0.0879364013671875,-0.3942413330078125,36020.143273375,1.576772689819336,-0.146861344575882,0.5483022332191467,36020.221253375,-44.63145446777344,-120.3531951904297,85.24496459960938,36020.202441375,1.258932733341167,-1.350861958522489,-0.09807146979948805,1.435930490493774,-0.176861897110939,0.4197748899459839,0.0454716682434082,-0.02728141844272614,-0.1867829263210297,2,0.3367188404026474,-0.5273156670092091,0.4836746831426913,0.6120598111149635,-0.9712222218513489,0.09791433811187744,-0.2171172201633453,-34.7156982421875,-32.43229675292969,15.53938293457031,-1,2,36012.3601285,1,2,1659870721.672624,1659870697.174657,8,1.322701,0,0,5.68,0,0,1659870729.09196,36016.906037,0,0.298584,97.25809,1659870721.14605,0,172480399,0,0,1,1659870721.123361,1,0.27,0
1659870729.644845,86,1659870728.573171,28.62002186989133,77.37101044609012,206.2835,-1,-1,-1,-1,20.64662170410156,35,-9999,1659870729.634993,-35.21323394775391,-29.09445190429688,26.98155212402344,156.0940399169922,154.8551483154297,15.39245796203613,36020.332106375,-0.8366851806640625,0.1316375732421875,-0.2895050048828125,36020.242725375,1.410087823867798,0.02939650416374207,0.2691084444522858,36020.321315375,-44.96246337890625,-116.8815155029297,95.19598388671875,36020.303151375,1.411071341207532,-1.333965912585962,-0.09350493158188278,1.605852723121643,0.01559782214462757,0.3208076655864716,0.1294153928756714,0.03750590234994888,-0.09611424803733826,2,0.3727462546511049,-0.4942280263548075,0.5309277437389485,0.5787180961389768,-0.9678400754928589,0.09336873888969421,-0.2335977703332901,-35.1136589050293,-30.464599609375,24.65753936767578,-1,2,36012.3601285,1,2,1659870721.672624,1659870697.174657,8,1.322701,0,0,5.68,0,0,1659870729.09196,36016.906037,0,0.298584,97.25809,1659870721.14605,0,172480399,0,0,1,1659870721.123361,1,0.27,0
1659870729.749843,87,1659870728.573171,28.62002186989133,77.37101044609012,206.2835,-1,-1,-1,-1,20.64662170410156,35,-9999,1659870729.735908,-35.39896392822266,-22.13011169433594,35.68209838867188,147.99853515625,146.7596435546875,15.39251136779785,36020.431557375,-0.9793853759765625,0.14422607421875,-0.1998138427734375,36020.342177375,1.619014739990234,-0.05388746783137321,0.2353762984275818,36020.421374375,-45.09103393554688,-109.9482574462891,103.7358093261719,36020.403861375,1.575611971406928,-1.322247388197675,-0.07669929441146833,1.514585494995117,-0.02827793173491955,0.08610090613365173,0.09761589765548706,0.01077824831008911,0.03020179271697998,2,0.4135437560708774,-0.4542513681342706,0.5756581414179007,0.5396803535554296,-0.9664207100868225,0.07662411779165268,-0.2452745139598846,-35.47141265869141,-23.65132904052734,34.32218933105469,-1,2,36012.3601285,1,2,1659870721.672624,1659870697.174657,8,1.322701,0,0,5.68,0,0,1659870729.09196,36016.906037,0,0.298584,97.25809,1659870721.14605,0,172480399,0,0,1,1659870721.123361,1,0.27,0
1659870729.841382,88,1659870728.573171,28.62002186989133,77.37101044609012,206.2835,-1,-1,-1,-1,20.64662170410156,35,-9999,1659870729.836422,-36.98289489746094,-16.24198150634766,35.46515655517578,144.935791015625,143.6968994140625,15.39254570007324,36020.531006375,-1.1512451171875,0.2446441650390625,-0.4001007080078125,36020.441629375,0.7434791922569275,-0.05592052266001701,0.2343949228525162,36020.521437375,-46.83087158203125,-104.0413970947266,103.2160034179688,36020.504570375,1.635851162554945,-1.292530891937719,-0.08410582971000333,0.2774999439716339,0.7376493215560913,0.2567658424377441,-0.2186843156814575,0.1558156907558441,-0.239115446805954,2,0.4161131185115192,-0.4358798767088941,0.5993658716926739,0.5268955940935198,-0.9581343531608582,0.08400670439004898,-0.2737172245979309,-36.29253768920898,-17.41693878173828,35.87740325927734,-1,2,36012.3601285,1,2,1659870721.672624,1659870697.174657,8,1.322701,0,0,5.68,0,0,1659870729.09196,36017.909204,0,0.3329163,97.25767,1659870721.14605,0,172480399,0,0,1,1659870721.123361,1,0.27,0
1659870729.949638,89,1659870728.573171,28.62002186989133,77.37101044609012,206.2835,-1,-1,-1,-1,20.64662170410156,35,-9999,1659870729.937274,-36.50329971313477,-11.18441772460938,35.60678100585938,140.1139221191406,138.8750305175781,15.39228248596191,36020.630458375,-0.897186279296875,0.1953887939453125,-0.170196533203125,36020.541077375,1.210321187973022,0.383232593536377,0.1989128291606903,36020.621498375,-46.22200012207031,-99.09565734863281,103.4038696289062,36020.605280375,1.747753207766247,-1.2693587487972,-0.05255732304857496,1.121651530265808,-0.1602704972028732,-0.2749984860420227,-0.009786784648895264,0.1581449806690216,0.1133624911308289,2,0.4409262531391311,-0.3966640742933337,0.627279757878813,0.5047392343696142,-0.95359206199646,0.05253313109278679,-0.2964833080768585,-36.56211853027344,-11.94561767578125,35.59690093994141,-1,2,36012.3601285,1,2,1659870721.672624,1659870697.174657,8,1.322701,0,0,5.68,0,0,1659870729.09196,36017.909204,0,0.3329163,97.25767,1659870721.14605,0,172480399,0,0,1,1659870721.123361,1,0.27,0
1659870730.042616,90,1659870728.573171,28.62002186989133,77.37101044609012,206.2835,-1,-1,-1,-1,20.64662170410156,35,-9999,1659870730.037872,-36.7061767578125,-8.849868774414062,34.24166107177734,137.9156799316406,136.6767883300781,15.39216423034668,36020.729910375,-0.866180419921875,0.187713623046875,-0.2863616943359375,36020.640529375,0.5197350382804871,0.1703027635812759,0.009713347069919109,36020.721560375,-46.43592834472656,-96.8292236328125,101.9875030517578,36020.70599037501,1.79919411754681,-1.25402887910705,-0.03576609831770437,0.4501397609710693,0.1625504195690155,0.06051140651106834,0.06728494167327881,0.1576772034168243,0.04197955131530762,2,0.4503749116557084,-0.3761832483563459,0.6405455584319055,0.4953279288482025,-0.9496394395828247,0.03575847297906876,-0.311297208070755,-36.59288787841797,-9.436317443847656,34.46833038330078,-1,2,36012.3601285,1,2,1659870721.672624,1659870697.174657,8,1.322701,0,0,5.68,0,0,1659870729.09196,36017.909204,0,0.3329163,97.25767,1659870721.14605,0,172480399,0,0,1,1659870721.123361,1,0.27,0
1659870730.147942,91,1659870728.573171,28.62002186989133,77.37101044609012,206.2835,-1,-1,-1,-1,20.64662170410156,35,-9999,1659870730.138814,-36.62097930908203,-6.430091857910156,34.43719482421875,134.1973419189453,132.9584503173828,15.39218521118164,36020.829361375,-0.9743194580078125,0.1237945556640625,-0.2320556640625,36020.739981375,0.6281334161758423,-0.05116837844252586,0.1492352932691574,36020.821608375,-46.35635375976562,-94.47712707519531,102.18896484375,36020.806700375,1.861587953688824,-1.260281940026652,-0.03615407321819213,0.4078234434127808,-0.1458110362291336,0.2986662685871124,-0.001891076564788818,0.1032886207103729,0.07988488674163818,2,0.4638420978015106,-0.3635603356285461,0.6543028135534954,0.473879910442017,-0.9515542387962341,0.03614619746804237,-0.3053487837314606,-36.745849609375,-6.844833374023438,34.57460784912109,-1,2,36012.3601285,1,2,1659870721.672624,1659870697.174657,8,1.322701,0,0,5.68,0,0,1659870729.09196,36017.909204,0,0.3329163,97.25767,1659870721.14605,0,172480399,0,0,1,1659870721.123361,1,0.27,0
1659870730.239027,92,1659870728.573171,28.62002186989133,77.37101044609012,206.2835,-1,-1,-1,-1,20.64662170410156,35,-9999,1659870730.219419,-36.8758430480957,-4.846511840820312,34.03985595703125,132.0397796630859,130.8008880615234,15.39220333099365,36020.92880716667,-0.978240966796875,0.0532989501953125,-0.2462615966796875,36020.839432375,0.2786044776439667,0.05019046738743782,0.3145936131477356,36020.92167116667,-46.52285766601562,-92.48307800292969,102.1118621826172,36020.90740716667,1.896624895315038,-1.26363526046528,-0.0551313285735631,0.2092536985874176,-0.2057004868984222,0.2458218038082123,0.002223670482635498,0.005885981023311615,0.05424419045448303,2,0.4666826710979439,-0.3622983476558868,0.6648390914038448,0.457095185257022,-0.9517474174499512,0.05510340631008148,-0.3018943965435028,-36.8758430480957,-4.846511840820312,34.03985595703125,-1,2,36012.3601285,1,2,1659870721.672624,1659870697.174657,8,1.322701,0,0,5.68,0,0,1659870729.09196,36017.909204,0,0.3329163,97.25767,1659870721.14605,0,172480399,0,0,1,1659870721.123361,1,0.27,0
1659870730.347295,93,1659870728.573171,28.62002186989133,77.37101044609012,206.2835,-1,-1,-1,-1,20.64662170410156,35,-9999,1659870730.339933,-36.54535675048828,-4.009521484375,33.82204437255859,131.4263458251953,130.1874542236328,15.39218711853027,36021.02825916667,-0.980804443359375,0.050537109375,-0.2497406005859375,36020.93887816667,0.09427696466445923,-0.1046116277575493,0.1499956250190735,36021.02172816667,-46.25717163085938,-92.03868103027344,101.6574554443359,36021.00811716667,1.900394817549611,-1.272442321410427,-0.06683289968059901,-0.1916767507791519,-0.02055219560861588,0.06966578960418701,-0.03274714946746826,-0.01693269610404968,0.03164857625961304,2,0.4674699982329314,-0.3671869534511824,0.6655389406349806,0.4513351400930785,-0.9536877274513245,0.06678315997123718,-0.2932910919189453,-36.66115951538086,-4.079139709472656,33.96445465087891,-1,2,36012.3601285,1,2,1659870721.672624,1659870697.174657,8,1.322701,0,0,5.68,0,0,1659870729.09196,36017.909204,0,0.3329163,97.25767,1659870721.14605,0,172480399,0,0,1,1659870721.123361,1,0.27,0
1659870730.440487,94,1659870728.573171,28.62002186989133,77.37101044609012,206.2835,-1,-1,-1,-1,20.64662170410156,35,-9999,1659870730.42073,-36.58758926391602,-4.349998474121094,32.75077819824219,131.9248504638672,130.6859588623047,15.39199161529541,36021.12771116667,-0.92950439453125,0.0006866455078125,-0.2404632568359375,36021.03833016667,-0.2428224980831146,0.06591270118951797,0.01409877464175224,36021.12180116667,-46.52243041992188,-92.52775573730469,100.4593658447266,36021.10882716667,1.879077569234528,-1.26942454472091,-0.08133799822477773,-0.2942312657833099,0.04482192918658257,0.1296757906675339,0.01892703771591187,-0.08030229806900024,0.0509607195854187,2,0.458959605070909,-0.3760738520298649,0.663750839881748,0.4553672313587163,-0.9517730474472046,0.08124834299087524,-0.295849084854126,-36.58758926391602,-4.349998474121094,32.75077819824219,-1,2,36012.3601285,1,2,1659870721.672624,1659870697.174657,8,1.322701,0,0,5.68,0,0,1659870729.09196,36017.909204,0,0.3329163,97.25767,1659870721.14605,0,172480399,0,0,1,1659870721.123361,1,0.27,0
1659870730.551316,95,1659870728.573171,28.62002186989133,77.37101044609012,206.2835,-1,-1,-1,-1,20.64662170410156,35,-9999,1659870730.541369,-36.63169479370117,-4.407447814941406,31.54881286621094,133.0076751708984,131.7687835693359,15.39192676544189,36021.22716216667,-0.9211273193359375,-0.0298919677734375,-0.247802734375,36021.13778216667,-0.3381615281105042,0.05595061555504799,0.07320204377174377,36021.22187016667,-46.31251525878906,-92.48992919921875,99.24702453613281,36021.20953616667,1.850960641148508,-1.266812921184036,-0.09694840492427,-0.2795536518096924,0.01364004146307707,0.05216196924448013,0.03035974502563477,-0.121256448328495,0.04565945267677307,2,0.4488242590624589,-0.3867788852595133,0.6604273759531591,0.4612965024265772,-0.9496711492538452,0.09679660946130753,-0.2979177534580231,-36.77322769165039,-4.379150390625,31.79891204833984,-1,2,36012.3601285,1,2,1659870721.672624,1659870697.174657,8,1.322701,0,0,5.68,0,0,1659870729.09196,36017.909204,0,0.3329163,97.25767,1659870721.14605,0,172480399,0,0,1,1659870721.123361,1,0.27,0
1659870730.636772,96,1659870728.573171,28.62002186989133,77.37101044609012,206.2835,-1,-1,-1,-1,20.64662170410156,35,-9999,1659870730.622152,-36.43088531494141,-4.844711303710938,30.68012237548828,133.5883636474609,132.3494720458984,15.39193725585938,36021.32661116667,-0.949005126953125,-0.0211639404296875,-0.244903564453125,36021.23723316667,-0.203039139509201,0.01582423597574234,0.09369906038045883,36021.32193516667,-46.10882568359375,-92.65048217773438,98.50239562988281,36021.31024616667,1.832632424082613,-1.270956023672075,-0.1047916504766732,-0.1434063464403152,-0.007679005619138479,-0.03635609149932861,0.003731727600097656,-0.1287088394165039,0.05464208126068115,2,0.4446073885774821,-0.3942722279381886,0.6565375317951569,0.464577374196822,-0.9501428008079529,0.1045999675989151,-0.2937473654747009,-36.43088531494141,-4.844711303710938,30.68012237548828,-1,2,36012.3601285,1,2,1659870721.672624,1659870697.174657,8,1.322701,0,0,5.68,0,0,1659870729.09196,36017.909204,0,0.3329163,97.25767,1659870721.14605,0,172480399,0,0,1,1659870721.123361,1,0.27,0
1659870730.737684,97,1659870728.573171,28.62002186989133,77.37101044609012,206.2835,-1,-1,-1,-1,20.64662170410156,35,-9999,1659870730.722965,-36.06779861450195,-4.956314086914062,30.16932678222656,134.3471069335938,133.1082153320312,15.39173221588135,36021.42606316667,-0.9935760498046875,-0.0182342529296875,-0.39239501953125,36021.33668216667,-0.1272767335176468,-0.0284713227301836,0.0170290507376194,36021.42199916667,-45.43161010742188,-93.44941711425781,97.80952453613281,36021.41095616667,1.824581694533716,-1.276696499060275,-0.09717687000722859,0.04032862558960915,-0.2631766200065613,-0.35020712018013,0.02284532785415649,-0.1719598919153214,-0.0524468719959259,2,0.4468531438550226,-0.3950529769413874,0.6521234121142431,0.4679642516695549,-0.9525481462478638,0.09702399373054504,-0.2885108292102814,-36.06779861450195,-4.956314086914062,30.16932678222656,-1,2,36012.3601285,1,2,1659870721.672624,1659870697.174657,8,1.322701,0,0,5.68,0,0,1659870729.09196,36017.909204,0,0.3329163,97.25767,1659870721.14605,0,172480399,0,0,1,1659870721.123361,1,0.27,0
1659870730.838124,98,1659870728.573171,28.62002186989133,77.37101044609012,206.2835,-1,-1,-1,-1,20.64662170410156,35,-9999,1659870730.823611,-34.75019836425781,-7.166450500488281,30.24558258056641,137.3424682617188,136.1035766601562,15.39170837402344,36021.52551416667,-1.083587646484375,0.13818359375,-0.3873748779296875,36021.43613416667,-0.1818334460258484,-0.670738697052002,-0.4620736241340637,36021.52207216667,-44.55398559570312,-95.25088500976562,98.03810119628906,36021.51166616667,1.800180217221891,-1.307080719527884,-0.05777716100132533,0.144193634390831,0.1775260865688324,-0.06008311361074448,-0.1019482016563416,0.06476780772209167,-0.1454051733016968,2,0.4618454388958291,-0.3957038356941713,0.6326119516110229,0.4794990846929534,-0.9638171195983887,0.05774502083659172,-0.260234534740448,-34.75019836425781,-7.166450500488281,30.24558258056641,-1,2,36012.3601285,1,2,1659870721.672624,1659870697.174657,8,1.322701,0,0,5.68,0,0,1659870729.09196,36018.911293,0,0.35672,97.2574,1659870721.14605,0,172480399,0,0,1,1659870721.123361,1,0.27,0
1659870730.939136,99,1659870728.573171,28.62002186989133,77.37101044609012,206.2835,-1,-1,-1,-1,20.64662170410156,35,-9999,1659870730.924166,-34.57190704345703,-6.988807678222656,30.24105834960938,136.5120239257812,135.2731323242188,15.3913516998291,36021.62496616667,-1.052932739257812,0.1213531494140625,-0.260009765625,36021.53558616667,0.3004280030727386,0.08294947445392609,-0.01474272739142179,36021.62214016667,-44.00251770019531,-94.80708312988281,97.92984008789062,36021.61237616667,1.825802351728734,-1.306219525639546,-0.04328847851771343,0.1734598577022552,-0.1163532882928848,-0.009063335135579109,-0.10047447681427,0.09113973379135132,0.0004677772521972656,2,0.4702065513713963,-0.3850686671687142,0.6363279508844124,0.475094349950402,-0.9642990231513977,0.04327496141195297,-0.2612558305263519,-34.57190704345703,-6.988807678222656,30.24105834960938,-1,2,36012.3601285,1,2,1659870721.672624,1659870697.174657,8,1.322701,0,0,5.68,0,0,1659870729.09196,36018.911293,0,0.35672,97.2574,1659870721.14605,0,172480399,0,0,1,1659870721.123361,1,0.27,0
1659870731.034726,100,1659870728.573171,28.62002186989133,77.37101044609012,206.2835,-1,-1,-1,-1,20.64662170410156,35,-9999,1659870731.024916,-34.70980453491211,-6.607810974121094,29.90765380859375,135.5523681640625,134.3134765625,15.39107704162598,36021.72441516667,-0.7637939453125,0.0297088623046875,-0.244384765625,36021.63503716667,0.07235808670520782,0.07386410236358643,0.04117007181048393,36021.72219816667,-44.54383850097656,-94.42198181152344,98.0606689453125,36021.71308616667,1.838293718618629,-1.296548490960777,-0.04934449191844728,0.2398123443126678,-0.05428068339824677,0.263871431350708,0.1939862370491028,-0.005501210689544678,0.0291755199432373,2,0.4680084037674783,-0.3817348151164605,0.6426247854665359,0.4714659331686612,-0.9614575505256653,0.04932447150349617,-0.2704933285713196,-34.70980453491211,-6.607810974121094,29.90765380859375,-1,2,36012.3601285,1,2,1659870721.672624,1659870697.174657,8,1.322701,0,0,5.68,0,0,1659870729.09196,36018.911293,0,0.35672,97.2574,1659870721.14605,0,172480399,0,0,1,1659870721.123361,1,0.27,0
1659870731.135406,101,1659870728.573171,28.62002186989133,77.37101044609012,206.2835,-1,-1,-1,-1,20.64662170410156,35,-9999,1659870731.105534,-34.64259719848633,-5.701995849609375,30.68572998046875,133.7581329345703,132.5192413330078,15.39099788665771,36021.82386716667,-0.8659820556640625,0.0186004638671875,-0.2977447509765625,36021.73448616667,0.2703633010387421,-0.233023926615715,0.3353252708911896,36021.82226516667,-44.38043212890625,-93.83480834960938,99.01336669921875,36021.81379616667,1.854745813506367,-1.314937934232889,-0.06771554000688636,-0.2198796272277832,-0.06842011958360672,0.1163004711270332,0.10455721616745,-0.05699789524078369,-0.02910506725311279,2,0.4725654368992573,-0.3878581417798973,0.6453181040889555,0.4580529236301544,-0.9652291536331177,0.06766380369663239,-0.2524959444999695,-34.61381530761719,-5.676383972167969,30.91219329833984,-1,2,36012.3601285,1,2,1659870721.672624,1659870697.174657,8,1.322701,0,0,5.68,0,0,1659870729.09196,36018.911293,0,0.35672,97.2574,1659870721.14605,0,172480399,0,0,1,1659870721.123361,1,0.27,0
1659870731.235912,102,1659870728.573171,28.62002186989133,77.37101044609012,206.2835,-1,-1,-1,-1,20.64662170410156,35,-9999,1659870731.226304,-34.60198593139648,-6.753402709960938,29.67626953125,135.7057495117188,134.4668579101562,15.3909969329834,36021.923318375,-0.937225341796875,0.051361083984375,-0.367340087890625,36021.83393816667,-0.341009795665741,0.005884254351258278,0.08171989768743515,36021.922326375,-44.34019470214844,-94.97442626953125,97.91337585449219,36021.914505375,1.816097976932259,-1.306874779976822,-0.07430149272437965,-0.4388054609298706,0.276039332151413,-0.2361452579498291,0.01747465133666992,-0.02950963377952576,-0.1096634864807129,2,0.4607497553029339,-0.3970332414579831,0.6393739977304214,0.4703988567020702,-0.9627107977867126,0.07423314452171326,-0.2601485252380371,-34.60198593139648,-6.753402709960938,29.67626953125,-1,2,36012.3601285,1,2,1659870721.672624,1659870697.174657,8,1.322701,0,0,5.68,0,0,1659870729.09196,36018.911293,0,0.35672,97.2574,1659870721.14605,0,172480399,0,0,1,1659870721.123361,1,0.27,0
1659870731.336908,103,1659870728.573171,28.62002186989133,77.37101044609012,206.2835,-1,-1,-1,-1,20.64662170410156,35,-9999,1659870731.32716,-35.12680053710938,-8.213401794433594,28.30666351318359,138.4651184082031,137.2262268066406,15.39099979400635,36022.022770375,-1.093994140625,0.0412139892578125,-0.300811767578125,36021.933389375,-0.4328723251819611,0.3339335024356842,-0.2291652709245682,36022.022391375,-44.60691833496094,-96.49482727050781,96.26864624023438,36022.015215375,1.779852857242633,-1.276745113189604,-0.06061569621723786,-0.1564429849386215,0.003785192267969251,-0.3269920647144318,-0.08470392227172852,-0.0410015657544136,-0.02927348017692566,2,0.4474900876214975,-0.3938309613864971,0.6350831100078725,0.4912423898759759,-0.9553197026252747,0.06057858467102051,-0.2892995774745941,-35.12680053710938,-8.213401794433594,28.30666351318359,-1,2,36012.3601285,1,2,1659870721.672624,1659870697.174657,8,1.322701,0,0,5.68,0,0,1659870729.09196,36018.911293,0,0.35672,97.2574,1659870721.14605,0,172480399,0,0,1,1659870721.123361,1,0.27,0
1659870731.432345,104,1659870728.573171,28.62002186989133,77.37101044609012,206.2835,-1,-1,-1,-1,20.64662170410156,35,-9999,1659870731.427658,-34.81736755371094,-11.0185546875,26.39635467529297,144.0074157714844,142.7685241699219,15.39076614379883,36022.122219375,-1.045730590820312,0.146697998046875,-0.3620452880859375,36022.032841375,-0.2938739657402039,-0.2532666325569153,-0.4295020997524261,36022.022391375,-44.60691833496094,-96.49482727050781,96.26864624023438,36022.115925375,1.696570573292244,-1.255463439061155,-0.0434546721969335,-0.5661835670471191,1.175946354866028,-0.08295738697052002,-0.1094388961791992,0.09849625825881958,-0.07822141051292419,2,0.4288378626928299,-0.4014698124726879,0.6154350618894142,0.5255088688121132,-0.9497956037521362,0.04344099760055542,-0.3098401427268982,-34.81736755371094,-11.0185546875,26.39635467529297,-1,2,36012.3601285,1,2,1659870721.672624,1659870697.174657,8,1.322701,0,0,5.68,0,0,1659870729.09196,36018.911293,0,0.35672,97.2574,1659870721.14605,0,172480399,0,0,1,1659870721.123361,1,0.27,0
1659870731.533442,105,1659870728.573171,28.62002186989133,77.37101044609012,206.2835,-1,-1,-1,-1,20.64662170410156,35,-9999,1659870731.528595,-35.12323760986328,-11.59344482421875,25.78800201416016,142.4596710205078,141.2207794189453,15.30528259277344,36022.221670375,-0.9175567626953125,0.0030364990234375,-0.178009033203125,36022.132290375,-0.1576596647500992,1.030067324638367,0.0510336235165596,36022.122455375,-44.63175964355469,-99.21144104003906,93.71565246582031,36022.216635375,1.73733715821481,-1.239036584476656,-0.02493300169636848,-0.1928235739469528,-0.2737925350666046,-0.3321581780910492,0.02279829978942871,-0.01487487554550171,0.1517931818962097,2,0.4367139874008464,-0.3827242523325664,0.6262117451424842,0.5202517420343914,-0.9451767802238464,0.02493041940033436,-0.3256060779094696,-35.12323760986328,-11.59344482421875,25.78800201416016,-1,2,36012.3601285,1,2,1659870721.672624,1659870697.174657,8,1.322701,0,0,5.68,0,0,1659870729.09196,36018.911293,0,0.35672,97.2574,1659870721.14605,0,172480399,0,0,1,1659870721.123361,1,0.27,0
1659870731.633705,106,1659870728.573171,28.62002186989133,77.37101044609012,206.2835,-1,-1,-1,-1,20.64662170410156,35,-9999,1659870731.629024,-35.09098815917969,-13.06769561767578,24.40366363525391,140.7291107177734,139.4902191162109,15.12386798858643,36022.321122375,-0.8934783935546875,0.034454345703125,-0.31182861328125,36022.231741375,-0.4631876349449158,-0.02993819117546082,-0.2373145520687103,36022.322571375,-44.74179077148438,-101.1201477050781,92.48634338378906,36022.317345375,1.765024186151701,-1.225931341774529,-0.02885949902013569,-0.07838333398103714,0.01280771568417549,-0.1270798146724701,0.04838001728057861,0.002928581088781357,0.02024081349372864,2,0.4367789940119827,-0.3745126294051973,0.6369367241244127,0.5131041185926687,-0.9407290816307068,0.02885549329221249,-0.3379288017749786,-35.09098815917969,-13.06769561767578,24.40366363525391,-1,2,36012.3601285,1,2,1659870721.672624,1659870697.174657,8,1.322701,0,0,5.68,0,0,1659870729.09196,36018.911293,0,0.35672,97.2574,1659870721.14605,0,172480399,0,0,1,1659870721.123361,1,0.27,0
1659870731.734735,107,1659870728.573171,28.62002186989133,77.37101044609012,206.2835,-1,-1,-1,-1,20.64662170410156,35,-9999,1659870731.729729,-34.5761833190918,-13.93567657470703,25.10264587402344,138.3867645263672,137.1478729248047,14.97710609436035,36022.420574375,-0.8647613525390625,-0.034820556640625,-0.2126312255859375,36022.331193375,0.04246649891138077,-0.1333532631397247,-0.1761579811573029,36022.422620375,-43.9522705078125,-102.1379699707031,93.03631591796875,36022.418055375,1.81974825282466,-1.246143933454722,-0.008985072228896995,-0.2246153652667999,-0.1143838763237,-0.07418219745159149,0.08325201272964478,-0.04008236527442932,0.1105466187000275,2,0.4584119828203058,-0.3610751027884307,0.6426878121312249,0.4964226518678925,-0.9477233290672302,0.008984951302409172,-0.3189664483070374,-34.5761833190918,-13.93567657470703,25.10264587402344,-1,2,36012.3601285,1,2,1659870721.672624,1659870697.174657,9,1.638507,0,0,6.38,0,0,1659870731.670485,36018.911293,0,0.35672,97.2574,1659870721.14605,0,172480399,0,0,1,1659870721.123361,1,0.27,0
1659870731.835786,108,1659870728.573171,28.62002186989133,77.37101044609012,206.2835,-1,-1,-1,-1,20.64662170410156,35,-9999,1659870731.830624,-34.57761764526367,-14.02583312988281,25.05927276611328,135.5767211914062,134.3378295898438,14.85507774353027,36022.520022375,-0.963836669921875,-0.1009368896484375,-0.268402099609375,36022.430645375,-0.2540692985057831,-0.08036434650421143,0.01872681640088558,36022.422620375,-43.9522705078125,-102.1379699707031,93.03631591796875,36022.418055375,1.81974825282466,-1.246143933454722,-0.008985072228896995,-0.2246153652667999,-0.1143838763237,-0.07418219745159149,0.08325201272964478,-0.04008236527442932,0.1105466187000275,2,0.4584119828203058,-0.3610751027884307,0.6426878121312249,0.4964226518678925,-0.9477233290672302,0.008984951302409172,-0.3189664483070374,-34.5761833190918,-13.93567657470703,25.10264587402344,-1,2,36012.3601285,1,2,1659870721.672624,1659870697.174657,9,1.638507,0,0,6.38,0,0,1659870731.670485,36019.916121,0,0.3619995,97.25735,1659870721.14605,0,172480399,0,0,1,1659870721.123361,1,0.27,0
1659870731.931067,109,1659870728.573171,28.62002186989133,77.37101044609012,206.2835,-1,-1,-1,-1,20.64662170410156,35,-9999,1659870731.911094,-34.51027679443359,-14.40727233886719,25.50824737548828,134.0202484130859,132.7813568115234,14.77093124389648,36022.619474375,-0.923370361328125,-0.0658416748046875,-0.28741455078125,36022.530093375,0.02638633362948895,-0.2679784595966339,0.01399091631174088,36022.522677375,-44.1300048828125,-102.1727752685547,93.27391052246094,36022.518764375,1.861593804061584,-1.256820928689412,-0.01879147391660418,0.05261071771383286,-0.2513079941272736,0.04328532516956329,-0.01220458745956421,-0.1197730004787445,0.04070585966110229,2,0.4669600086517805,-0.3571478048160895,0.6521358708787064,0.4786570725254866,-0.9509453773498535,0.01879036799073219,-0.3087875843048096,-34.57761764526367,-14.02583312988281,25.05927276611328,-1,2,36012.3601285,1,2,1659870721.672624,1659870697.174657,9,1.638507,0,0,6.38,0,0,1659870731.670485,36019.916121,0,0.3619995,97.25735,1659870721.14605,0,172480399,0,0,1,1659870721.123361,1,0.27,0
1659870732.034599,110,1659870728.573171,28.62002186989133,77.37101044609012,206.2835,-1,-1,-1,-1,20.64662170410156,35,-9999,1659870732.031729,-33.94606018066406,-15.3963623046875,25.95953369140625,133.5374450683594,132.2985534667969,14.6619987487793,36022.718926375,-1.215591430664062,0.1563568115234375,-0.36395263671875,36022.629545375,-0.03150865808129311,0.06292330473661423,-0.1508827209472656,36022.62273037501,-44.05354309082031,-102.6655883789062,93.42866516113281,36022.619474375,1.897188458255849,-1.268622846777879,-0.0129796855528542,-0.03350846096873283,0.02745643258094788,-0.1261384934186935,0.03124123811721802,-0.07882100343704224,0.01015621423721313,2,0.4785068731240719,-0.3496365967667819,0.6567583535152088,0.4663195193264902,-0.9546115398406982,0.01297932118177414,-0.2975708544254303,-34.3924446105957,-14.36746215820312,25.47453308105469,-1,2,36012.3601285,1,2,1659870721.672624,1659870697.174657,9,1.638507,0,0,6.38,0,0,1659870731.670485,36019.916121,0,0.3619995,97.25735,1659870721.14605,0,172480399,0,0,1,1659870721.123361,1,0.27,0
1659870732.132639,111,1659870728.573171,28.62002186989133,77.37101044609012,206.2835,-1,-1,-1,-1,20.64662170410156,35,-9999,1659870732.112415,-34.50808715820312,-16.5386962890625,23.61396026611328,133.7586212158203,132.5197296142578,14.59861278533936,36022.818378375,-1.00726318359375,0.1378173828125,-0.4158935546875,36022.728997375,-0.8418590426445007,0.07667001336812973,-0.280340313911438,36022.722791375,-43.52037048339844,-103.8200988769531,93.72138977050781,36022.720184375,1.91108146563265,-1.293029209602151,0.0003180044014781377,-0.7364839315414429,-0.2535493075847626,-0.2790916562080383,-0.2501524686813354,0.1543859839439392,-0.08980473875999451,2,0.492015312169943,-0.3475865688960647,0.6517659602871048,0.4607663429369016,-0.9616700410842896,-0.0003180044004693627,-0.2742090225219727,-33.94606018066406,-15.3963623046875,25.95953369140625,-1,2,36012.3601285,1,2,1659870721.672624,1659870697.174657,9,1.638507,0,0,6.38,0,0,1659870731.670485,36019.916121,0,0.3619995,97.25735,1659870721.14605,0,172480399,0,0,1,1659870721.123361,1,0.27,0
1659870732.237687,112,1659870728.573171,28.62002186989133,77.37101044609012,206.2835,-1,-1,-1,-1,20.64662170410156,35,-9999,1659870732.233355,-34.65502166748047,-15.73632049560547,25.02449798583984,129.2433776855469,128.0044860839844,14.51451206207275,36022.91782625,-0.85302734375,0.0215301513671875,-0.2602691650390625,36022.828449375,0.4810638427734375,-0.5520594120025635,-0.009723467752337456,36022.822852375,-44.24526977539062,-104.094482421875,91.68501281738281,36022.820894375,1.913182207862869,-1.256996155859188,-0.01095671329531176,0.4879246652126312,-0.4046958684921265,0.02550265565514565,-0.0556187629699707,0.1252434551715851,-0.1045663952827454,2,0.4779143563997519,-0.3424462093319318,0.6629144049087706,0.4635438862006382,-0.951110303401947,0.01095649413764477,-0.3086569309234619,-34.56274795532227,-16.20611572265625,23.56082153320312,-1,2,36012.3601285,1,2,1659870721.672624,1659870697.174657,9,1.638507,0,0,6.38,0,0,1659870731.670485,36019.916121,0,0.3619995,97.25735,1659870721.14605,0,172480399,0,0,1,1659870721.123361,1,0.27,0
1659870732.328899,113,1659870728.573171,28.62002186989133,77.37101044609012,206.2835,-1,-1,-1,-1,20.64662170410156,35,-9999,1659870732.314094,-34.97570037841797,-15.16514587402344,25.70501708984375,126.6052474975586,125.3663635253906,14.46458530426025,36023.01727825,-0.824554443359375,-0.0306396484375,-0.284515380859375,36022.92789725,0.1946866661310196,0.04881094768643379,0.2039510011672974,36022.92291525,-44.38482666015625,-103.4998474121094,92.89411926269531,36022.92160425,1.977116965633016,-1.273726675965865,-0.01172143406675041,0.2072701007127762,0.0943610742688179,0.2132009118795395,0.112840473651886,0.001965969800949097,0.03160613775253296,2,0.4940947157694597,-0.3309391726606715,0.6734039869386843,0.4391772843275229,-0.9561326503753662,0.01172116585075855,-0.2926993370056152,-34.65502166748047,-15.73632049560547,25.02449798583984,-1,2,36012.3601285,1,2,1659870721.672624,1659870697.174657,9,1.638507,0,0,6.38,0,0,1659870731.670485,36019.916121,0,0.3619995,97.25735,1659870721.14605,0,172480399,0,0,1,1659870721.123361,1,0.27,0
1659870732.436255,114,1659870728.573171,28.62002186989133,77.37101044609012,206.2835,-1,-1,-1,-1,20.64662170410156,35,-9999,1659870732.434585,-35.10431289672852,-14.77536010742188,26.14643096923828,125.5875473022461,124.3486633300781,14.45287895202637,36023.11673025,-0.8363189697265625,0.00927734375,-0.3334808349609375,36023.02734925001,0.07051943987607956,-0.143381655216217,0.1166477873921394,36023.02296725,-44.61198425292969,-103.1426086425781,93.9022216796875,36023.02231425,2.02538604459486,-1.291428979509443,-0.0214428957380749,0.1068246066570282,-0.1719229966402054,0.1354319602251053,0.1315261125564575,-0.047564297914505,-0.009899377822875977,2,0.5058934532661112,-0.3259290158021964,0.6808584293033989,0.4174612067588589,-0.9610090851783752,0.02144125290215015,-0.2756841778755188,-34.94908142089844,-15.04446411132812,26.02178955078125,-1,2,36012.3601285,1,2,1659870721.672624,1659870697.174657,9,1.638507,0,0,6.38,0,0,1659870731.670485,36019.916121,0,0.3619995,97.25735,1659870721.14605,0,172480399,0,0,1,1659870721.123361,1,0.27,0
1659870732.53005,115,1659870728.573171,28.62002186989133,77.37101044609012,206.2835,-1,-1,-1,-1,20.64662170410156,35,-9999,1659870732.515381,-35.44801712036133,-14.93297576904297,25.75081634521484,125.7944488525391,124.5555648803711,14.4529504776001,36023.21618225001,-0.9755706787109375,0.0193939208984375,-0.371124267578125,36023.12680125,-0.03468713909387589,-0.1348536908626556,0.213276594877243,36023.12301825,-44.76927185058594,-102.8304443359375,93.98292541503906,36023.12302325,2.026576287346836,-1.300881270609304,-0.03024860132083026,-0.01734434068202972,-0.139747828245163,0.2150620669126511,0.1149030327796936,-0.02113449573516846,-0.06727373600006104,2,0.5074177901371631,-0.3305501355505031,0.6800793346286905,0.4132261933979479,-0.9633526802062988,0.03024398908019066,-0.2665275931358337,-35.10431289672852,-14.77536010742188,26.14643096923828,-1,2,36012.3601285,1,2,1659870721.672624,1659870697.174657,9,1.638507,0,0,6.38,0,0,1659870731.670485,36019.916121,0,0.3619995,97.25735,1659870721.14605,0,172480399,0,0,1,1659870721.123361,1,0.27,0
