loggingTime,loggingSample,locationTimestamp_since1970,locationLatitude,locationLongitude,locationAltitude,locationSpeed,locationSpeedAccuracy,locationCourse,locationCourseAccuracy,locationVerticalAccuracy,locationHorizontalAccuracy,locationFloor,locationHeadingTimestamp_since1970,locationHeadingX,locationHeadingY,locationHeadingZ,locationTrueHeading,locationMagneticHeading,locationHeadingAccuracy,accelerometerTimestamp_sinceReboot,accelerometerAccelerationX,accelerometerAccelerationY,accelerometerAccelerationZ,gyroTimestamp_sinceReboot,gyroRotationX,gyroRotationY,gyroRotationZ,magnetometerTimestamp_sinceReboot,magnetometerX,magnetometerY,magnetometerZ,motionTimestamp_sinceReboot,motionYaw,motionRoll,motionPitch,motionRotationRateX,motionRotationRateY,motionRotationRateZ,motionUserAccelerationX,motionUserAccelerationY,motionUserAccelerationZ,motionAttitudeReferenceFrame,motionQuaternionX,motionQuaternionY,motionQuaternionZ,motionQuaternionW,motionGravityX,motionGravityY,motionGravityZ,motionMagneticFieldX,motionMagneticFieldY,motionMagneticFieldZ,motionHeading,motionMagneticFieldCalibrationAccuracy,activityTimestamp_sinceReboot,activity,activityActivityConfidence,activityActivityStartDate,pedometerStartDate,pedometerNumberofSteps,pedometerAverageActivePace,pedometerCurrentPace,pedometerCurrentCadence,pedometerDistance,pedometerFloorAscended,pedometerFloorDescended,pedometerEndDate,altimeterTimestamp_sinceReboot,altimeterReset,altimeterRelativeAltitude,altimeterPressure,IP_Timestamp_since1970,IP_en0,IP_pdp_ip0,deviceID,deviceOrientationTimeStamp_since1970,deviceOrientation,batteryTimeStamp_since1970,batteryState,batteryLevel,label
1659874783.152569,1,1659874778.842381,28.62006089592329,77.37104301134306,206.6296,-1,-1,-1,-1,15.29698085784912,35,-9999,1659874783.142359,-24.01247406005859,-19.18136978149414,-23.08811569213867,213.2366333007812,211.9977569580078,13.05802631378174,40073.4907185,-0.9683380126953125,0.055267333984375,-0.250579833984375,40073.4189455,-0.08399796485900879,0.05781083554029465,0.0006900250446051359,40073.4325005,-49.32191467285156,-40.6302490234375,-18.28158569335938,40073.4856815,0.03188942990018655,-1.357088507192797,-0.0539174322737944,0.02881817147135735,0.0008324473164975643,-0.0007213077042251825,0.008652746677398682,-0.000836499035358429,-0.03942856192588806,2,-0.01097800196837131,-0.6276871591693659,0.02932443914882443,0.7778357351635404,-0.975831151008606,0.05389131233096123,-0.2117766290903091,-23.97688674926758,-18.93775939941406,-23.23374557495117,-1,2,40073.2594445,1,2,1659874783.008561,0,0,0,0,0,0,0,0,0,40070.356673,0,0.1928711,97.26672,0,0,0,0,0,1,1659874783.131723,1,0.16,0
1659874783.233207,2,1659874778.842381,28.62006089592329,77.37104301134306,206.6296,-1,-1,-1,-1,15.29698085784912,35,-9999,1659874783.22294,-24.05828094482422,-19.14692687988281,-23.40579986572266,213.2699432373047,212.0310668945312,13.05868244171143,40073.5901845,-0.9611358642578125,0.059722900390625,-0.2187347412109375,40073.5184165,0.05148609355092049,-0.03975140675902367,-0.02993126772344112,40073.5325515,-49.36128234863281,-40.33924865722656,-18.60240173339844,40073.4856815,0.03188942990018655,-1.357088507192797,-0.0539174322737944,0.02881817147135735,0.0008324473164975643,-0.0007213077042251825,0.008652746677398682,-0.000836499035358429,-0.03942856192588806,2,-0.01097800196837131,-0.6276871591693659,0.02932443914882443,0.7778357351635404,-0.975831151008606,0.05389131233096123,-0.2117766290903091,-23.97688674926758,-18.93775939941406,-23.23374557495117,-1,2,40073.2594445,1,2,1659874783.008561,0,0,0,0,0,0,0,0,0,40070.356673,0,0.1928711,97.26672,1659874783.156116,3232235861,168214937,0,0,1,1659874783.131723,1,0.16,0
1659874783.33331,3,1659874778.842381,28.62006089592329,77.37104301134306,206.6296,-1,-1,-1,-1,15.29698085784912,35,-9999,1659874783.323363,-24.28656768798828,-19.05645370483398,-23.43964385986328,213.1857757568359,211.9468994140625,13.05908012390137,40073.68965550001,-0.986572265625,0.0539703369140625,-0.2224884033203125,40073.6178875,0.01625353842973709,-0.09030326455831528,0.01320661604404449,40073.6325965,-49.53746032714844,-40.14907836914062,-18.65400695800781,40073.5864105,0.03210384457648337,-1.357884515703607,-0.05388163672164985,0.008505720645189285,-0.01252210512757301,0.04760241508483887,0.01558256149291992,0.004112601280212402,-0.008726119995117188,2,-0.01088507818278123,-0.6279979354873979,0.0294009389487998,0.7775833344947759,-0.9760013818740845,0.05385556817054749,-0.2110002189874649,-24.13296890258789,-19.07320785522461,-23.27390289306641,-1,2,40073.2594445,1,2,1659874783.008561,0,0,0,0,0,0,0,0,0,40070.356673,0,0.1928711,97.26672,1659874783.156116,3232235861,168214937,0,0,1,1659874783.131723,1,0.16,0
1659874783.437238,4,1659874778.842381,28.62006089592329,77.37104301134306,206.6296,-1,-1,-1,-1,15.29698085784912,35,-9999,1659874783.424473,-24.34815216064453,-18.74201202392578,-23.22439575195312,213.3166046142578,212.0777282714844,13.05942153930664,40073.7891255,-0.9839019775390625,0.061065673828125,-0.23333740234375,40073.71735750001,-0.008826248347759247,-0.06635052710771561,0.01064545381814241,40073.73264050001,-49.73017883300781,-40.2166748046875,-18.710205078125,40073.68713950001,0.02897023791359237,-1.363657444256346,-0.05802793890500658,-0.1045429259538651,-0.02981864102184772,0.03304670006036758,-0.009168863296508789,-0.004650622606277466,-0.01384711265563965,2,-0.01339698564233049,-0.6302088489672566,0.02952195328285684,0.7757486222819973,-0.9769762754440308,0.05799537897109985,-0.2053146511316299,-24.49307632446289,-18.98140716552734,-23.24849700927734,-1,2,40073.2594445,1,2,1659874783.008561,0,0,0,0,0,0,0,0,0,40070.356673,0,0.1928711,97.26672,1659874783.156116,3232235861,168214937,0,0,1,1659874783.131723,1,0.16,0
1659874783.53502,5,1659874778.842381,28.62006089592329,77.37104301134306,206.6296,-1,-1,-1,-1,15.29698085784912,35,-9999,1659874783.525062,-24.44211578369141,-18.97113800048828,-23.17742538452148,213.2253265380859,211.9864501953125,13.05995464324951,40073.8885965,-0.963775634765625,0.0578460693359375,-0.1932830810546875,40073.81682450001,0.07569555938243866,-0.01579813845455647,-0.03872982040047646,40073.8326945,-49.66366577148438,-40.15794372558594,-18.54377746582031,40073.7878675,0.02679199998405346,-1.367166660393712,-0.05848496676134187,0.01594972610473633,0.002536753658205271,0.006164731457829475,-0.005611777305603027,0.001988448202610016,-0.0311371386051178,2,-0.01421014758018993,-0.6315522648933862,0.02884589777832869,0.7746663772797521,-0.9776648283004761,0.05845163017511368,-0.201879620552063,-24.50255966186523,-18.75905609130859,-23.26888656616211,-1,2,40073.2594445,1,2,1659874783.008561,0,0,0,0,0,0,0,0,0,40070.356673,0,0.1928711,97.26672,1659874783.156116,3232235861,168214937,0,0,1,1659874783.131723,1,0.16,0
1659874783.630905,6,1659874778.842381,28.62006089592329,77.37104301134306,206.6296,-1,-1,-1,-1,15.29698085784912,35,-9999,1659874783.626038,-24.41128158569336,-19.17743682861328,-23.09595108032227,213.0244445800781,211.7855682373047,13.06025886535645,40073.9880625,-0.993621826171875,0.036102294921875,-0.1907958984375,40073.9162945,-0.003691940102726221,-0.0265586394816637,0.02690218761563301,40073.9327465,-49.64089965820312,-40.38191223144531,-18.48130798339844,40073.8885965,0.03136644097770852,-1.367193010456478,-0.05488429953364173,0.007235242985188961,-0.01988334581255913,-0.002188635524362326,0.01409399509429932,0.002989344298839569,0.008612245321273804,2,-0.0113696243596296,-0.6316036737894087,0.02948197909137451,0.7746472521565284,-0.9778696894645691,0.05485674738883972,-0.2018950581550598,-24.51943206787109,-19.05458068847656,-23.20241165161133,-1,2,40073.2594445,1,2,1659874783.008561,0,0,0,0,0,0,0,0,0,40071.358541,0,0.1955261,97.2667,1659874783.156116,3232235861,168214937,0,0,1,1659874783.131723,1,0.16,0
1659874783.731141,7,1659874778.842381,28.62006089592329,77.37104301134306,206.6296,-1,-1,-1,-1,15.29698085784912,35,-9999,1659874783.726301,-24.78221893310547,-18.81284713745117,-22.92839050292969,212.9879455566406,211.7490692138672,13.06056785583496,40074.0875305,-0.94366455078125,0.00042724609375,-0.20806884765625,40074.0157625,0.02824788354337215,-0.05131298676133156,0.07841517776250839,40074.0327995,-49.92843627929688,-40.03909301757812,-18.12965393066406,40073.9893255,0.03199705102952134,-1.369962602704634,-0.05803681986435962,-0.03132650256156921,-0.001402545254677534,0.02699946612119675,-0.01421141624450684,-0.02257329225540161,0.007454574108123779,2,-0.01234981406386262,-0.6326707032945778,0.03073782303001693,0.7737122351327621,-0.9782509207725525,0.05800424516201019,-0.1991505324840546,-24.46069717407227,-19.21412658691406,-23.11475372314453,-1,2,40073.2594445,1,2,1659874783.008561,0,0,0,0,0,0,0,0,0,40071.358541,0,0.1955261,97.2667,1659874783.156116,3232235861,168214937,0,0,1,1659874783.131723,1,0.16,0
1659874783.836838,8,1659874778.842381,28.62006089592329,77.37104301134306,206.6296,-1,-1,-1,-1,15.29698085784912,35,-9999,1659874783.827196,-25.1490478515625,-18.68248748779297,-22.83560943603516,212.2820892333984,211.043212890625,13.06118774414062,40074.1870005,-0.9741363525390625,0.017822265625,-0.23822021484375,40074.1152325,0.0218586940318346,-0.08270313590764999,0.1199474409222603,40074.1328625,-50.19558715820312,-39.78462219238281,-18.23751831054688,40074.0900505,0.02939936676598466,-1.375243329398302,-0.06127215457778127,-0.08437560498714447,-0.05241133645176888,0.0719941109418869,0.0365946888923645,-0.06163054704666138,-0.01754218339920044,2,-0.014342814829884,-0.6346826586710583,0.0307931616703721,0.772025987511854,-0.9790996909141541,0.06123382225632668,-0.1939444094896317,-24.79790496826172,-18.84026718139648,-23.09975814819336,-1,2,40073.2594445,1,2,1659874783.008561,0,0,0,0,0,0,0,0,0,40071.358541,0,0.1955261,97.2667,1659874783.156116,3232235861,168214937,0,0,1,1659874783.131723,1,0.16,0
1659874783.932586,9,1659874778.842381,28.62006089592329,77.37104301134306,206.6296,-1,-1,-1,-1,15.29698085784912,35,-9999,1659874783.928105,-25.26694488525391,-18.93208312988281,-22.13683700561523,211.2573852539062,210.0185089111328,13.06160926818848,40074.2864715,-0.972564697265625,0.015899658203125,-0.187652587890625,40074.2146985,0.1473063677549362,0.02571415156126022,0.08242350071668625,40074.2329285,-50.38107299804688,-39.95704650878906,-17.55274963378906,40074.1907795,0.0397623102250011,-1.383681658826879,-0.06613534872595045,0.1818531304597855,-0.027686707675457,0.06896544992923737,0.00653541088104248,-0.04449597001075745,-0.04863464832305908,2,-0.01277932249512759,-0.6379871908899984,0.03638825900311965,0.7690807394472488,-0.9803972840309143,0.06608714908361435,-0.1856180727481842,-25.10010528564453,-18.67887878417969,-22.76974487304688,-1,2,40073.2594445,1,2,1659874783.008561,0,0,0,0,0,0,0,0,0,40071.358541,0,0.1955261,97.2667,1659874783.156116,3232235861,168214937,0,0,1,1659874783.131723,1,0.16,0
1659874784.02861,10,1659874778.842381,28.62006089592329,77.37104301134306,206.6296,-1,-1,-1,-1,15.29698085784912,35,-9999,1659874784.008456,-25.41418075561523,-18.74358367919922,-21.72756195068359,210.9833679199219,209.7444915771484,13.06194972991943,40074.3859375,-0.977142333984375,0.026763916015625,-0.2082672119140625,40074.3141695,0.03688584640622139,-0.1360659599304199,0.01653077267110348,40074.3329985,-50.64506530761719,-40.27040100097656,-17.35340881347656,40074.29150750001,0.05634353032740622,-1.37964322532607,-0.06722592259395438,0.1585551351308823,-0.07411007583141327,0.01989064365625381,0.01019251346588135,-0.05670774728059769,0.005831137299537659,2,-0.00799650895920051,-0.6365179248907955,0.04309417186656989,0.7700155425983863,-0.9795681834220886,0.06717529892921448,-0.1895619779825211,-25.20249557495117,-18.89403915405273,-22.1526985168457,-1,2,40073.2594445,1,2,1659874783.008561,0,0,0,0,0,0,0,0,0,40071.358541,0,0.1955261,97.2667,1659874783.156116,3232235861,168214937,0,0,1,1659874783.131723,1,0.16,0
1659874784.129166,11,1659874778.842381,28.62006089592329,77.37104301134306,206.6296,-1,-1,-1,-1,15.29698085784912,35,-9999,1659874784.109248,-25.59584426879883,-19.01969909667969,-21.93379592895508,210.9915313720703,209.7526550292969,13.06223773956299,40074.4854075,-0.98675537109375,0.031768798828125,-0.20538330078125,40074.4136395,0.03898787871003151,-0.202840194106102,-0.03306633979082108,40074.4330685,-50.83064270019531,-40.12318420410156,-16.930419921875,40074.3922365,0.05999222955068678,-1.389417921789025,-0.06973055602949309,0.07787406444549561,-0.189271867275238,0.0436004139482975,0.0002791285514831543,-0.0381036177277565,-0.02398626506328583,2,-0.007579608377658864,-0.6402881895535224,0.04533162018459996,0.7667585240139944,-0.9812056422233582,0.0696740597486496,-0.179947167634964,-25.37089538574219,-18.83380889892578,-22.01056671142578,-1,2,40073.2594445,1,2,1659874783.008561,0,0,0,0,0,0,0,0,0,40071.358541,0,0.1955261,97.2667,1659874783.156116,3232235861,168214937,0,0,1,1659874783.131723,1,0.16,0
1659874784.230247,12,1659874778.842381,28.62006089592329,77.37104301134306,206.6296,-1,-1,-1,-1,15.29698085784912,35,-9999,1659874784.210112,-25.06912612915039,-19.507568359375,-21.55981826782227,212.1822967529297,210.9434204101562,13.06255054473877,40074.5848775,-0.9788665771484375,0.0338897705078125,-0.17132568359375,40074.5131105,-0.001087102340534329,0.09232939779758453,-0.1743225306272507,40074.5331345,-50.38594055175781,-40.37486267089844,-16.97222900390625,40074.4929645,0.06292169338103831,-1.399786070646425,-0.0584455538942962,0.06445588171482086,-0.02111758664250374,-0.1487681716680527,-0.0121493935585022,-0.02996987104415894,-0.02850711345672607,2,-0.002085521848681937,-0.6442452545579822,0.04286195123426129,0.7636142366961456,-0.9837309122085571,0.05841228738427162,-0.1698874086141586,-25.39369964599609,-19.12271881103516,-21.49871444702148,-1,2,40073.2594445,1,2,1659874783.008561,0,0,0,0,0,0,0,0,0,40071.358541,0,0.1955261,97.2667,1659874783.156116,3232235861,168214937,0,0,1,1659874783.131723,1,0.16,0
1659874784.330488,13,1659874778.842381,28.62006089592329,77.37104301134306,206.6296,-1,-1,-1,-1,15.29698085784912,35,-9999,1659874784.310646,-24.26018524169922,-19.64854431152344,-22.32107162475586,213.9683532714844,212.7294769287109,13.06287097930908,40074.6843485,-0.995849609375,0.0107574462890625,-0.195648193359375,40074.6125765,-0.21567103266716,0.1561224907636642,-0.1698585450649261,40074.63319350001,-49.92581176757812,-40.83723449707031,-17.27328491210938,40074.59369250001,0.05749971840662559,-1.395415771522772,-0.03336565231656944,-0.0939650684595108,0.01106511615216732,-0.2157573699951172,0.002300620079040527,-0.00473395362496376,0.01441289484500885,2,0.005687148471637593,-0.6424755064445515,0.03273856969604277,0.7655854674489233,-0.9841122031211853,0.03335946053266525,-0.1743857562541962,-24.86820602416992,-19.72610092163086,-21.69089126586914,-1,2,40073.2594445,1,2,1659874783.008561,0,0,0,0,0,0,0,0,0,40071.358541,0,0.1955261,97.2667,1659874783.156116,3232235861,168214937,0,0,1,1659874783.131723,1,0.16,0
1659874784.426463,14,1659874778.842381,28.62006089592329,77.37104301134306,206.6296,-1,-1,-1,-1,15.29698085784912,35,-9999,1659874784.411326,-23.73996734619141,-19.59906387329102,-22.53752899169922,215.4524383544922,214.2135620117188,13.06331443786621,40074.78381450001,-0.9716796875,0.0080108642578125,-0.1527252197265625,40074.7120465,-0.1051591783761978,0.07454880326986313,-0.1733145266771317,40074.7332495,-49.08590698242188,-40.82763671875,-17.96415710449219,40074.6944215,0.03761208243090346,-1.383741806805475,-0.02138831299735949,-0.08026865124702454,0.07882344722747803,-0.1764079928398132,-0.01733285188674927,-0.007531670853495598,0.001108869910240173,2,0.003763001062039917,-0.6379845514142843,0.0213012901042956,0.7697454251724624,-0.9823316931724548,0.02138668298721313,-0.1859230995178223,-24.18168258666992,-19.67148208618164,-22.40763473510742,-1,2,40073.2594445,1,2,1659874783.008561,0,0,0,0,0,0,0,0,0,40071.358541,0,0.1955261,97.2667,1659874783.156116,3232235861,168214937,0,0,1,1659874783.131723,1,0.16,0
1659874784.527071,15,1659874784.428135,28.61995191140472,77.37098591552622,206.6751,-1,-1,-1,-1,18.89225769042969,62.66666666666666,-9999,1659874784.511968,-23.24960708618164,-19.45396423339844,-23.18564605712891,216.6531829833984,215.414306640625,13.06370258331299,40074.8832845,-0.985809326171875,-0.0296630859375,-0.1663665771484375,40074.81151650001,-0.1713765412569046,0.1060878187417984,-0.06235631927847862,40074.8333085,-48.56710815429688,-40.63609313964844,-18.44192504882812,40074.7951495,0.019574934494365,-1.371858803900662,-0.01120792677973936,-0.1957715749740601,0.12102010846138,-0.08523452281951904,0.01218265295028687,-0.007286191917955875,0.03727640211582184,2,0.001862822788768093,-0.633394639273567,0.01112292214155702,0.7737468113964814,-0.9802156090736389,0.0112076923251152,-0.1976155191659927,-23.55022430419922,-19.5657844543457,-22.87325668334961,-1,2,40073.2594445,1,2,1659874783.008561,0,0,0,0,0,0,0,0,0,40071.358541,0,0.1955261,97.2667,1659874783.156116,3232235861,168214937,0,0,1,1659874783.131723,1,0.16,0
1659874784.62771,16,1659874784.428135,28.61995191140472,77.37098591552622,206.6751,-1,-1,-1,-1,18.89225769042969,62.66666666666666,-9999,1659874784.612987,-23.36264419555664,-19.00644683837891,-23.69612884521484,216.9093933105469,215.6705169677734,13.06412220001221,40074.9827545,-0.96685791015625,-0.042724609375,-0.1811676025390625,40074.9109865,-0.1392931789159775,0.12298583984375,0.08608774840831757,40074.9333765,-48.53631591796875,-40.25074768066406,-18.72406005859375,40074.8958775,0.001847800179329779,-1.36506878668257,-0.01242577296523828,-0.1850268095731735,0.1468848884105682,0.05981123447418213,-0.009566247463226318,-0.04356864094734192,0.02509516477584839,2,-0.004238272134713561,-0.6307536761107071,0.004635733869384207,0.775957824705362,-0.9788371920585632,0.01242545340210199,-0.2042636722326279,-23.35712051391602,-19.25595092773438,-23.45746612548828,-1,2,40073.2594445,1,2,1659874783.008561,0,0,0,0,0,0,0,0,0,40072.360692,0,0.1928711,97.26672,1659874783.156116,3232235861,168214937,0,0,1,1659874783.131723,1,0.16,0
1659874784.728428,17,1659874784.428135,28.61995191140472,77.37098591552622,206.6751,-1,-1,-1,-1,18.89225769042969,62.66666666666666,-9999,1659874784.71349,-23.35746765136719,-18.76446914672852,-24.01637649536133,216.3201599121094,215.0812835693359,13.06440734863281,40075.08222329167,-1.001998901367188,-0.0556640625,-0.2084503173828125,40075.01045250001,-0.04366385564208031,0.0595160573720932,0.1866790652275085,40075.03344529167,-48.54632568359375,-40.04046630859375,-19.18547058105469,40074.9966055,-0.00139183978702552,-1.357624309457219,-0.01925837415828075,-0.01244237367063761,0.07149160653352737,0.1411532908678055,0.01249229907989502,-0.06124937534332275,0.03412353992462158,2,-0.0079313883963609,-0.6278344591394778,0.005504149094288591,0.7782871159404482,-0.9771836400032043,0.01925718411803246,-0.2115219682455063,-23.18101501464844,-19.11602401733398,-23.80606079101562,-1,2,40073.2594445,1,2,1659874783.008561,0,0,0,0,0,0,0,0,0,40072.360692,0,0.1928711,97.26672,1659874783.156116,3232235861,168214937,0,0,1,1659874783.131723,1,0.16,0
1659874784.826207,18,1659874784.428135,28.61995191140472,77.37098591552622,206.6751,-1,-1,-1,-1,18.89225769042969,62.66666666666666,-9999,1659874784.814226,-23.47178649902344,-18.60357666015625,-24.20172882080078,215.7273712158203,214.4884948730469,13.06481170654297,40075.18168929167,-1.008926391601562,-0.07464599609375,-0.184539794921875,40075.10992129167,0.08292817324399948,0.05674770101904869,0.1301593333482742,40075.13350829167,-49.01460266113281,-39.67259216308594,-18.95890808105469,40075.09733329167,0.0002645691238349669,-1.35669297646626,-0.03162085929121192,0.07109282910823822,0.00973300077021122,0.121832937002182,-0.02924168109893799,-0.09219294786453247,0.009682893753051758,2,-0.01222666828495705,-0.6274296334614918,0.010023718119893,0.7785127573195787,-0.9766788482666016,0.03161558881402016,-0.2123651206493378,-23.36319732666016,-18.73043823242188,-23.88705825805664,-1,2,40073.2594445,1,2,1659874783.008561,0,0,0,0,0,0,0,0,0,40072.360692,0,0.1928711,97.26672,1659874783.156116,3232235861,168214937,0,0,1,1659874783.131723,1,0.16,0
1659874784.92484,19,1659874784.821697,28.62009607673641,77.37104306336899,206.6116,-1,-1,-1,-1,16.37762641906738,35,-9999,1659874784.914854,-23.16851425170898,-18.47526168823242,-24.42753601074219,215.6608428955078,214.4219665527344,13.06569194793701,40075.28115929167,-0.996368408203125,-0.070770263671875,-0.206390380859375,40075.20939229167,-0.02977946773171425,0.08499984443187714,0.09050752967596054,40075.23358029167,-48.65396118164062,-39.64617919921875,-19.76191711425781,40075.19806129167,-0.002496530259843756,-1.340967884550532,-0.041575023431796,-0.09651427716016769,0.1762595474720001,0.08898886293172836,-0.02174955606460571,-0.1210155487060547,0.02526707947254181,2,-0.01706172783668541,-0.6212101692437519,0.01193786474265157,0.7833673651858978,-0.9728642106056213,0.04156304895877838,-0.2276136428117752,-23.28335952758789,-18.23479080200195,-24.31084442138672,-1,2,40073.2594445,1,2,1659874783.008561,0,0,0,0,0,0,0,0,0,40072.360692,0,0.1928711,97.26672,1659874783.156116,3232235861,168214937,0,0,1,1659874783.131723,1,0.16,0
1659874785.026572,20,1659874784.821697,28.62009607673641,77.37104306336899,206.6116,-1,-1,-1,-1,16.37762641906738,35,-9999,1659874785.016191,-23.15312576293945,-20.61038208007812,-22.57524490356445,216.5169677734375,215.2780914306641,13.0665283203125,40075.38063029167,-1.062545776367188,0.0103302001953125,-0.1224212646484375,40075.30886229167,0.4251347780227661,-0.4507519900798798,-0.5112390518188477,40075.33366329167,-48.72103881835938,-41.07905578613281,-18.16551208496094,40075.29878929167,0.01591639903334093,-1.351618301105291,-0.01882217301606203,0.4391526281833649,-0.4073584675788879,-0.4712285101413727,0.01707178354263306,-0.08982020616531372,0.02795127034187317,2,-0.002364388405358908,-0.6255397480724829,0.01209528803725696,0.7800949276429687,-0.9759035706520081,0.01882106252014637,-0.2173888683319092,-23.16116333007812,-18.89264297485352,-23.84937286376953,-1,2,40073.2594445,1,2,1659874783.008561,0,0,0,0,0,0,0,0,0,40072.360692,0,0.1928711,97.26672,1659874783.156116,3232235861,168214937,0,0,1,1659874783.131723,1,0.16,0
1659874785.126154,21,1659874784.821697,28.62009607673641,77.37104306336899,206.6116,-1,-1,-1,-1,16.37762641906738,35,-9999,1659874785.116661,-22.54486846923828,-21.3856315612793,-22.80498123168945,216.1291351318359,214.8902587890625,13.06734371185303,40075.48010029167,-1.05303955078125,-0.05804443359375,-0.2468719482421875,40075.40832829167,0.04212428256869316,0.313890278339386,-0.1174853518605232,40075.43374329167,-47.68353271484375,-42.36540222167969,-18.38456726074219,40075.39951729167,0.03905675382705854,-1.354242768094792,0.02993658896543562,0.06793703883886337,0.5633615255355835,-0.2175058573484421,-0.02368700504302979,0.1051121950149536,0.0787978321313858,2,0.02389671772884211,-0.6261346436027627,0.005841068712686082,0.7793268727632194,-0.9762062430381775,-0.02993211708962917,-0.2147687077522278,-22.41512680053711,-21.1495361328125,-22.90790557861328,-1,2,40073.2594445,1,2,1659874783.008561,0,0,0,0,0,0,0,0,0,40072.360692,0,0.1928711,97.26672,1659874783.156116,3232235861,168214937,0,0,1,1659874783.131723,1,0.16,0
1659874785.221979,22,1659874784.821697,28.62009607673641,77.37104306336899,206.6116,-1,-1,-1,-1,16.37762641906738,35,-9999,1659874785.217142,-22.1530647277832,-22.16128158569336,-22.63226699829102,216.2734222412109,215.0345458984375,13.06827068328857,40075.57956629167,-0.9427032470703125,0.005462646484375,-0.3021392822265625,40075.50779829167,-0.06341332942247391,0.003234941745176911,-0.2354380786418915,40075.53382629167,-47.74604797363281,-43.25468444824219,-17.99870300292969,40075.50024529167,0.04967705234364615,-1.367222859057451,0.04156491307537616,-0.07320424914360046,-0.0449388287961483,-0.302021861076355,-0.03329050540924072,0.04097312688827515,-0.08610522747039795,2,0.03178937754855024,-0.6308657350705225,0.006129950099388604,0.7752164503657455,-0.9785047173500061,-0.04155294597148895,-0.2019957154989243,-22.56572723388672,-21.60256958007812,-22.50205993652344,-1,2,40073.2594445,1,2,1659874783.008561,0,0,0,0,0,0,0,0,0,40072.360692,0,0.1928711,97.26672,1659874783.156116,3232235861,168214937,0,0,1,1659874783.131723,1,0.16,0
1659874785.323522,23,1659874784.821697,28.62009607673641,77.37104306336899,206.6116,-1,-1,-1,-1,16.37762641906738,35,-9999,1659874785.317829,-22.32032775878906,-22.55603790283203,-21.67097091674805,213.9669036865234,212.72802734375,13.06910419464111,40075.67903629167,-0.916778564453125,-0.05218505859375,-0.243621826171875,40075.60726829167,0.4333458542823792,-0.02278360910713673,0.05476284772157669,40075.63390829167,-47.52081298828125,-43.76713562011719,-17.40106201171875,40075.60097429167,0.06792015134945317,-1.352181039386088,0.04475833876563724,0.4358688592910767,-0.0131465382874012,0.0176507942378521,0.08044564723968506,0.01707920804619789,-0.05859212577342987,2,0.03868584366251493,-0.6246382614030092,0.01248350197972597,0.7798555797936465,-0.9752211570739746,-0.04474339634180069,-0.2166609019041061,-22.30596542358398,-22.36591720581055,-22.46889114379883,-1,2,40073.2594445,1,2,1659874783.008561,0,0,0,0,0,0,0,0,0,40072.360692,0,0.1928711,97.26672,1659874783.156116,3232235861,168214937,0,0,1,1659874783.131723,1,0.16,0
1659874785.426479,24,1659874784.821697,28.62009607673641,77.37104306336899,206.6116,-1,-1,-1,-1,16.37762641906738,35,-9999,1659874785.418803,-22.51057434082031,-23.17905426025391,-21.44110870361328,212.4280242919922,211.1891479492188,13.06920719146729,40075.77850629167,-0.919647216796875,-0.0668487548828125,-0.195526123046875,40075.70673829167,0.3188022077083588,-0.06741392612457275,0.1016600504517555,40075.73398829167,-48.22084045410156,-43.958251953125,-16.54296875,40075.70170229167,0.1044114589299233,-1.356173006857456,0.03442418692753613,0.3369320929050446,-0.07512208074331284,0.1322911232709885,0.03813856840133667,-0.03302645683288574,-0.02242183685302734,2,0.04611455111716747,-0.6256571141783116,0.0298500341729569,0.7781617640303148,-0.9764779210090637,-0.03441738709807396,-0.2128532528877258,-22.67924118041992,-22.77798461914062,-21.73636627197266,-1,2,40073.2594445,1,2,1659874783.008561,0,0,0,0,0,0,0,0,0,40072.360692,0,0.1928711,97.26672,1659874783.156116,3232235861,168214937,0,0,1,1659874783.131723,1,0.16,0
1659874785.52403,25,1659874784.821697,28.62009607673641,77.37104306336899,206.6116,-1,-1,-1,-1,16.37762641906738,35,-9999,1659874785.519423,-22.61332321166992,-23.32777786254883,-21.00743865966797,212.3188171386719,211.0799407958984,13.06981182098389,40075.87797629167,-0.9552459716796875,-0.0653839111328125,-0.1917572021484375,40075.80620429167,0.1196515634655952,0.06405674666166306,0.01803066581487656,40075.83406629167,-47.84457397460938,-44.37039184570312,-16.44619750976562,40075.80243029167,0.1257318473331925,-1.361160743835649,0.03870969670698249,0.1368783116340637,0.05851475521922112,0.0322127528488636,0.04944127798080444,-0.05207448825240135,0.01205553114414215,2,0.05453664260445618,-0.6269385612073788,0.03666444641537464,0.776292200896563,-0.9773741364479065,-0.03870002925395966,-0.2079475969076157,-22.85161972045898,-23.07595443725586,-21.11992645263672,-1,2,40073.2594445,1,2,1659874783.008561,0,0,0,0,0,0,0,0,0,40072.360692,0,0.1928711,97.26672,1659874783.156116,3232235861,168214937,0,0,1,1659874783.131723,1,0.16,0
1659874785.620214,26,1659874784.821697,28.62009607673641,77.37104306336899,206.6116,-1,-1,-1,-1,16.37762641906738,35,-9999,1659874785.599923,-22.75120162963867,-23.09305572509766,-21.18354034423828,213.072998046875,211.8341217041016,13.0705041885376,40075.97744229167,-1.071945190429688,-0.0184783935546875,-0.225341796875,40075.90567429167,-0.1416569948196411,-0.09474941343069077,0.04305053129792213,40075.93414729167,-48.28269958496094,-44.20571899414062,-16.17604064941406,40075.90315829167,0.1221159624046284,-1.362587570089261,0.03912694893141554,-0.1306221336126328,-0.08253414183855057,0.04952466487884521,-0.001639962196350098,-0.01581466197967529,-0.005227029323577881,2,0.05358978426903219,-0.6275773918060652,0.03509147446516347,0.7759146590119478,-0.9776540994644165,-0.03911696746945381,-0.2065495103597641,-22.68972778320312,-23.12659072875977,-21.26047134399414,-1,2,40073.2594445,1,2,1659874783.008561,0,0,0,0,0,0,0,0,0,40073.365292,0,0.1875916,97.26679,1659874783.156116,3232235861,168214937,0,0,1,1659874783.131723,1,0.16,0
1659874785.721778,27,1659874784.821697,28.62009607673641,77.37104306336899,206.6116,-1,-1,-1,-1,16.37762641906738,35,-9999,1659874785.700907,-22.30934524536133,-22.49777603149414,-22.36971282958984,214.3013000488281,213.0624237060547,13.07084655761719,40076.07691304167,-0.9567108154296875,0.0155181884765625,-0.228179931640625,40076.00514429167,-0.2346721589565277,0.4283950328826904,0.1130945980548859,40076.03423704167,-47.60850524902344,-43.43783569335938,-17.72071838378906,40076.00388629167,0.09593356849955915,-1.344610153550182,0.03409064880551934,-0.2299444824457169,0.4404632449150085,0.1200494319200516,-0.05512070655822754,-0.01472881063818932,-0.05151757597923279,2,0.04317756856394558,-0.6213449963099371,0.02690585272326051,0.7818837669127052,-0.9739626049995422,-0.03408404439687729,-0.2241321802139282,-22.53945541381836,-22.73217010498047,-22.27694702148438,-1,2,40073.2594445,1,2,1659874783.008561,0,0,0,0,0,0,0,0,0,40073.365292,0,0.1875916,97.26679,1659874783.156116,3232235861,168214937,0,0,1,1659874783.131723,1,0.16,0
1659874785.821664,28,1659874784.821697,28.62009607673641,77.37104306336899,206.6116,-1,-1,-1,-1,16.37762641906738,35,-9999,1659874785.801478,-22.26350784301758,-22.0286750793457,-22.91992568969727,214.0554656982422,212.8165893554688,13.07121849060059,40076.17638304167,-0.981597900390625,-0.0352935791015625,-0.2828826904296875,40076.10461504167,-0.007314638234674931,0.1788903921842575,0.2472137808799744,40076.13432604167,-47.81466674804688,-43.08146667480469,-17.85415649414062,40076.10461504167,0.08782346450182844,-1.347660677200536,0.03914452269248001,0.004176763817667961,0.174827829003334,0.2439151555299759,0.01527851819992065,0.00634339451789856,0.03339046239852905,2,0.04266492583473749,-0.6225914691737188,0.02209645126758936,0.7810707443350874,-0.9744614362716675,-0.03913452848792076,-0.2211191356182098,-22.36157989501953,-22.34248733520508,-22.31570816040039,-1,2,40073.2594445,1,2,1659874783.008561,0,0,0,0,0,0,0,0,0,40073.365292,0,0.1875916,97.26679,1659874783.156116,3232235861,168214937,0,0,1,1659874783.131723,1,0.16,0
1659874785.925595,29,1659874784.821697,28.62009607673641,77.37104306336899,206.6116,-1,-1,-1,-1,16.37762641906738,35,-9999,1659874785.922068,-21.9572868347168,-22.49137115478516,-22.92287826538086,213.4886627197266,212.2497863769531,13.07194519042969,40076.27585304167,-0.9694671630859375,0.0041961669921875,-0.2061767578125,40076.20408104167,0.1319665610790253,0.09044015407562256,-0.08398784697055817,40076.23440704167,-47.22509765625,-43.38380432128906,-18.31854248046875,40076.20534304167,0.08220833674971435,-1.32219771556978,0.03186548615866432,0.1496467739343643,0.07986711710691452,-0.08338035643100739,0.03614890575408936,0.0289456881582737,0.0008193552494049072,2,0.03779186231515139,-0.6128713377554209,0.02265722736742837,0.7889532365041365,-0.9687661528587341,-0.03186009451746941,-0.2459210008382797,-21.92412567138672,-22.23915863037109,-22.95152282714844,-1,2,40073.2594445,1,2,1659874783.008561,0,0,0,0,0,0,0,0,0,40073.365292,0,0.1875916,97.26679,1659874783.156116,3232235861,168214937,0,0,1,1659874783.131723,1,0.16,0
1659874786.017956,30,1659874784.821697,28.62009607673641,77.37104306336899,206.6116,-1,-1,-1,-1,16.37762641906738,35,-9999,1659874786.002744,-22.22645568847656,-22.8394889831543,-22.30191421508789,212.2813110351562,211.0424346923828,13.07252311706543,40076.37531804167,-0.9522247314453125,-0.0605316162109375,-0.1542205810546875,40076.30355104167,0.2491043657064438,-0.08445017039775848,0.09517312049865723,40076.33448504167,-47.63642883300781,-43.80374145507812,-17.74803161621094,40076.30607104167,0.1023569238283932,-1.325815513084706,0.0275287248975396,0.268397331237793,-0.08994461596012115,0.08158960193395615,-0.04046428203582764,0.02516016364097595,0.04189980030059814,2,0.04231368113562975,-0.6139923743871141,0.03185836251370455,0.7875328913670525,-0.9697744846343994,-0.02752524800598621,-0.2424458265304565,-22.24671936035156,-22.58515548706055,-22.83149719238281,-1,2,40073.2594445,1,2,1659874783.008561,0,0,0,0,0,0,0,0,0,40073.365292,0,0.1875916,97.26679,1659874783.156116,3232235861,168214937,0,0,1,1659874783.131723,1,0.16,0
1659874786.12135,31,1659874784.821697,28.62009607673641,77.37104306336899,206.6116,-1,-1,-1,-1,16.37762641906738,35,-9999,1659874786.103803,-22.16033935546875,-23.712890625,-21.51941299438477,211.4260559082031,210.1871795654297,13.07271194458008,40076.47478804167,-0.939666748046875,-0.059661865234375,-0.158721923828125,40076.40302104167,0.2781365513801575,-0.02131700702011585,-0.1173346191644669,40076.43455804167,-47.57267761230469,-44.91343688964844,-17.16319274902344,40076.40679904167,0.1314934763283292,-1.330346253800642,0.03704986092216219,0.2853735983371735,-0.02016904391348362,-0.1307651251554489,-0.008363246917724609,-0.02913596853613853,0.1004948914051056,2,0.05508566852239571,-0.6147986558957712,0.04027591192825652,0.7857264922107222,-0.9705644249916077,-0.03704138472676277,-0.2379763573408127,-22.33885955810547,-23.360595703125,-21.89781188964844,-1,2,40073.2594445,1,2,1659874783.008561,0,0,0,0,0,0,0,0,0,40073.365292,0,0.1875916,97.26679,1659874783.156116,3232235861,168214937,0,0,1,1659874783.131723,1,0.16,0
1659874786.219212,32,1659874784.821697,28.62009607673641,77.37104306336899,206.6116,-1,-1,-1,-1,16.37762641906738,35,-9999,1659874786.204115,-22.43281936645508,-24.52870559692383,-20.77226257324219,209.8113861083984,208.572509765625,13.07246398925781,40076.57425804167,-1.038681030273438,0.0130157470703125,-0.1512298583984375,40076.50249104167,0.2633093893527985,-0.1292852908372879,-0.01767699792981148,40076.53462704167,-47.82254028320312,-45.44482421875,-15.93138122558594,40076.50752704167,0.1587491201493067,-1.337543902889858,0.04993026217298351,0.2728247940540314,-0.1414355486631393,-0.02454935386776924,-0.01326280832290649,0.003324449062347412,0.06010943651199341,2,0.06867058866175837,-0.6163252506795074,0.04676261288225692,0.7830970928488236,-0.9717074632644653,-0.04990951716899872,-0.2308550775051117,-22.28881072998047,-24.19057464599609,-21.12636566162109,-1,2,40073.2594445,1,2,1659874783.008561,0,0,0,0,0,0,0,0,0,40073.365292,0,0.1875916,97.26679,1659874783.156116,3232235861,168214937,0,0,1,1659874783.131723,1,0.16,0
1659874786.321129,33,1659874784.821697,28.62009607673641,77.37104306336899,206.6116,-1,-1,-1,-1,16.37762641906738,35,-9999,1659874786.305264,-23.46075820922852,-23.69714736938477,-20.99122619628906,207.5877075195312,206.3488311767578,13.07243061065674,40076.67372804167,-1.062423706054688,-0.0342864990234375,-0.3037261962890625,40076.60195604167,-0.1477396637201309,-0.007744472473859787,0.4400708675384521,40076.63470004167,-48.47885131835938,-44.69277954101562,-16.26004028320312,40076.60825504167,0.1703724417080041,-1.332162118666031,0.03046326640287315,-0.09240061789751053,-0.06395316869020462,0.4954262375831604,-0.02514225244522095,0.0249959584325552,-0.009827449917793274,2,0.06449961136795895,-0.6145785231302412,0.05751158600107881,0.7841080275166943,-0.9712108373641968,-0.03045855462551117,-0.2362660765647888,-22.7682991027832,-24.18344879150391,-20.92878723144531,-1,2,40073.2594445,1,2,1659874783.008561,0,0,0,0,0,0,0,0,0,40073.365292,0,0.1875916,97.26679,1659874783.156116,3232235861,168214937,0,0,1,1659874783.131723,1,0.16,0
1659874786.415798,34,1659874784.821697,28.62009607673641,77.37104306336899,206.6116,-1,-1,-1,-1,16.37762641906738,35,-9999,1659874786.405673,-23.87276077270508,-23.7892951965332,-20.32826232910156,206.9550323486328,205.7161560058594,13.07328510284424,40076.77319404167,-1.00848388671875,0.0686492919921875,-0.357025146484375,40076.70142604167,0.106769323348999,-0.1482840031385422,0.007212905213236809,40076.73477004167,-49.21397399902344,-44.89674377441406,-15.45172119140625,40076.70898304167,0.1868744209152058,-1.3562649388124,0.001419833851620342,0.09574690461158752,-0.09269614517688751,-0.0384141206741333,-0.06242978572845459,0.004883617162704468,-0.1026468724012375,2,0.05908203934511477,-0.6245515386517412,0.07221455497808998,0.7753900951912795,-0.9770753383636475,-0.001419833395630121,-0.2128893733024597,-24.00087738037109,-23.65334320068359,-20.47402000427246,-1,2,40073.2594445,1,2,1659874783.008561,0,0,0,0,0,0,0,0,0,40073.365292,0,0.1875916,97.26679,1659874783.156116,3232235861,168214937,0,0,1,1659874783.131723,1,0.16,0
1659874786.521333,35,1659874784.821697,28.62009607673641,77.37104306336899,206.6116,-1,-1,-1,-1,16.37762641906738,35,-9999,1659874786.506685,-23.71413803100586,-24.83544158935547,-19.31768035888672,205.2621002197266,204.0232238769531,13.07425308227539,40076.87266404167,-0.8482208251953125,-0.0134735107421875,-0.22265625,40076.80089604167,0.4305330216884613,0.0962493047118187,-0.03232545033097267,40076.83484104167,-48.97459411621094,-45.66270446777344,-14.88624572753906,40076.80971104167,0.2086952319110254,-1.352917427641519,0.009933325585701511,0.4724585115909576,0.007251234259456396,-0.08099102228879929,0.03665840625762939,0.04289218783378601,-0.09448972344398499,2,0.0690578983158166,-0.6222192049616577,0.07812873554843763,0.7758675276833414,-0.9763101935386658,-0.009933162480592728,-0.2161485403776169,-23.71757125854492,-24.21396255493164,-19.9947509765625,-1,2,40073.2594445,1,2,1659874783.008561,0,0,0,0,0,0,0,0,0,40073.365292,0,0.1875916,97.26679,1659874783.156116,3232235861,168214937,0,0,1,1659874783.131723,1,0.16,0
1659874786.617111,36,1659874784.821697,28.62009607673641,77.37104306336899,206.6116,-1,-1,-1,-1,16.37762641906738,35,-9999,1659874786.607133,-23.52328491210938,-25.59817504882812,-18.50568580627441,203.8088226318359,202.5699462890625,13.07491970062256,40076.97213404167,-0.9442901611328125,0.0086517333984375,-0.2603759765625,40076.90036604167,0.179395318031311,0.03705628961324692,0.09791591018438339,40076.93491904167,-49.21231079101562,-46.63035583496094,-13.98863220214844,40076.91043904167,0.2471027398579675,-1.368230338339943,0.02073943853555819,0.1621791869401932,0.04073807969689369,0.08402737230062485,0.08713096380233765,0.02725351043045521,-0.04032984375953674,2,0.08585513994267835,-0.6261459640484169,0.08899764989020631,0.7698373706965294,-0.9793429374694824,-0.02073795162141323,-0.2011402547359467,-23.7758674621582,-25.2353401184082,-18.71904373168945,-1,2,40073.2594445,1,2,1659874783.008561,0,0,0,0,0,0,0,0,0,40074.367756,0,0.1875916,97.26679,1659874783.156116,3232235861,168214937,0,0,1,1659874783.131723,1,0.16,0
1659874786.721118,37,1659874784.821697,28.62009607673641,77.37104306336899,206.6116,-1,-1,-1,-1,16.37762641906738,35,-9999,1659874786.707997,-23.12689971923828,-26.07542419433594,-18.53128051757812,203.3601379394531,202.1212615966797,13.07519817352295,40077.07160412501,-0.9512481689453125,-0.03564453125,-0.22119140625,40076.99983204167,0.2241193801164627,0.1203495785593987,-0.05667579546570778,40077.034991125,-48.46435546875,-46.94905090332031,-13.57861328125,40077.01116704167,0.2701183067455388,-1.362285741777305,0.02608873516285713,0.1643461287021637,0.1636688560247421,-0.06952220946550369,0.02059465646743774,0.006478255614638329,0.008141249418258667,2,0.09481968935773599,-0.6225294838812788,0.09645483793624421,0.7708195301103414,-0.9780073761940002,-0.02608577534556389,-0.2069325298070908,-23.59968948364258,-25.72007369995117,-17.99863433837891,-1,2,40073.2594445,1,2,1659874783.008561,0,0,0,0,0,0,0,0,0,40074.367756,0,0.1875916,97.26679,1659874783.156116,3232235861,168214937,0,0,1,1659874783.131723,1,0.16,0
1659874786.813791,38,1659874784.821697,28.62009607673641,77.37104306336899,206.6116,-1,-1,-1,-1,16.37762641906738,35,-9999,1659874786.809263,-22.81069183349609,-26.07671737670898,-18.62640380859375,203.9377288818359,202.6988525390625,13.0757303237915,40077.171069125,-0.9893951416015625,-0.0209503173828125,-0.2525177001953125,40077.099302125,-0.08397426456212997,0.08822386711835861,-0.06623680889606476,40077.135067125,-48.255859375,-47.30047607421875,-14.01507568359375,40077.111895125,0.2704557222829314,-1.349848167841497,0.03334451674061233,-0.09558182954788208,0.06492005288600922,-0.08572567999362946,-0.008113384246826172,0.01366979256272316,-0.01308342814445496,2,0.0971240182281107,-0.6172928126114954,0.0949217512012685,0.7749234964211533,-0.9751477837562561,-0.03333833813667297,-0.2190330177545547,-22.86137008666992,-26.08242034912109,-18.71819305419922,-1,2,40073.2594445,1,2,1659874783.008561,0,0,0,0,0,0,0,0,0,40074.367756,0,0.1875916,97.26679,1659874783.156116,3232235861,168214937,0,0,1,1659874783.131723,1,0.16,0
1659874786.916785,39,1659874784.821697,28.62009607673641,77.37104306336899,206.6116,-1,-1,-1,-1,16.37762641906738,35,-9999,1659874786.909289,-21.91083526611328,-25.99357604980469,-20.02500534057617,205.3096771240234,204.07080078125,13.07633113861084,40077.27053912501,-1.047607421875,-0.0028076171875,-0.272796630859375,40077.198772125,-0.203380286693573,-0.04415813833475113,-0.1638432592153549,40077.23514112501,-47.50958251953125,-47.15403747558594,-15.12306213378906,40077.212623125,0.2569282188799142,-1.350751565283656,0.03917161093919935,-0.2423567175865173,0.3379369378089905,-0.1703046560287476,-0.1320844888687134,-0.002586424350738525,-0.03332817554473877,2,0.09523770584479696,-0.6179618383493878,0.08782474129974022,0.7754610948708005,-0.9751392006874084,-0.03916159272193909,-0.2181058973073959,-22.50639343261719,-25.97322082519531,-19.22394561767578,-1,2,40073.2594445,1,2,1659874783.008561,0,0,0,0,0,0,0,0,0,40074.367756,0,0.1875916,97.26679,1659874783.156116,3232235861,168214937,0,0,1,1659874783.131723,1,0.16,0
1659874787.01507,40,1659874784.821697,28.62009607673641,77.37104306336899,206.6116,-1,-1,-1,-1,16.37762641906738,35,-9999,1659874787.010301,-21.40077590942383,-26.35572052001953,-19.82027816772461,206.5824432373047,205.3435668945312,13.077223777771,40077.370009125,-0.9597930908203125,-0.0511932373046875,-0.205718994140625,40077.29824112501,-0.00962652824819088,-0.2331094145774841,-0.3737496137619019,40077.335216125,-46.76841735839844,-47.44371032714844,-15.4285888671875,40077.31335112501,0.2422819074383164,-1.330696541362168,0.05382722143505456,-0.01728178933262825,-0.2713940143585205,-0.4166048467159271,0.001477837562561035,0.06309384107589722,0.008939743041992188,2,0.09558979620077807,-0.6100286902787849,0.07854354858059837,0.7826613006528247,-0.9699076414108276,-0.05380123108625412,-0.2374551743268967,-21.43479919433594,-26.19585800170898,-20.28864669799805,-1,2,40073.2594445,1,2,1659874783.008561,0,0,0,0,0,0,0,0,0,40074.367756,0,0.1875916,97.26679,1659874783.156116,3232235861,168214937,0,0,1,1659874783.131723,1,0.16,0
1659874787.117775,41,1659874784.821697,28.62009607673641,77.37104306336899,206.6116,-1,-1,-1,-1,16.37762641906738,35,-9999,1659874787.111251,-21.03481292724609,-26.17325973510742,-20.48496627807617,206.9387054443359,205.6998291015625,13.07808399200439,40077.469479125,-0.8648681640625,-0.012298583984375,-0.250091552734375,40077.397707125,-0.1485511213541031,0.2318952828645706,0.105948269367218,40077.43527912501,-46.33065795898438,-47.28541564941406,-15.96115112304688,40077.414078125,0.2398519381946752,-1.332113289670575,0.05656247398176832,-0.1837650388479233,0.1974150240421295,-0.06127502396702766,-0.02802693843841553,0.0237869918346405,0.008582592010498047,2,0.09596788768284026,-0.6105469605934203,0.0766831581545882,0.7823953435419391,-0.9700964689254761,-0.05653231963515282,-0.2360451519489288,-21.30074310302734,-26.01108551025391,-20.34986686706543,-1,2,40073.2594445,1,2,1659874783.008561,0,0,0,0,0,0,0,0,0,40074.367756,0,0.1875916,97.26679,1659874783.156116,3232235861,168214937,0,0,1,1659874783.131723,1,0.16,0
1659874787.211417,42,1659874784.821697,28.62009607673641,77.37104306336899,206.6116,-1,-1,-1,-1,16.37762641906738,35,-9999,1659874787.191426,-21.4180908203125,-25.98227691650391,-20.52782821655273,205.8505706787109,204.6116943359375,13.07880306243896,40077.568944125,-0.9768829345703125,-0.0767364501953125,-0.1924591064453125,40077.49717712501,0.03676573932170868,0.0001419464824721217,0.2547540068626404,40077.53534612501,-46.6912841796875,-47.00102233886719,-15.70339965820312,40077.514806125,0.2401434253933157,-1.334337431191469,0.05410779592090224,0.03351401537656784,-0.01423224247992039,0.2338411957025528,0.03187751770019531,0.03079650551080704,0.0294969379901886,2,0.09518788772600445,-0.6115389735914397,0.07744718699238767,0.7816401242930291,-0.9707508683204651,-0.05408139899373055,-0.233918696641922,-21.2508430480957,-26.04205322265625,-20.35536003112793,-1,2,40073.2594445,1,2,1659874783.008561,0,0,0,0,0,0,0,0,0,40074.367756,0,0.1875916,97.26679,1659874783.156116,3232235861,168214937,0,0,1,1659874783.131723,1,0.16,0
1659874787.317637,43,1659874784.821697,28.62009607673641,77.37104306336899,206.6116,-1,-1,-1,-1,16.37762641906738,35,-9999,1659874787.312268,-21.15438842773438,-26.15887832641602,-20.32927322387695,205.6792755126953,204.4403991699219,13.07974147796631,40077.668414125,-0.946563720703125,-0.099365234375,-0.184600830078125,40077.596647125,0.1117086857557297,-0.06585757434368134,-0.03761555254459381,40077.635404125,-46.637451171875,-47.10171508789062,-15.90336608886719,40077.61553412501,0.2518380053757899,-1.343381031038261,0.05013790077869371,0.04909124225378036,0.018123559653759,-0.09876105189323425,-0.003854870796203613,-0.04064234718680382,0.07493902742862701,2,0.09759504103700151,-0.6147249812029375,0.08279903604040756,0.7782883605898548,-0.9730281233787537,-0.0501168966293335,-0.2251768112182617,-21.36084747314453,-25.85943984985352,-20.46866035461426,-1,2,40073.2594445,1,2,1659874783.008561,0,0,0,0,0,0,0,0,0,40074.367756,0,0.1875916,97.26679,1659874783.156116,3232235861,168214937,0,0,1,1659874783.131723,1,0.16,0
1659874787.412878,44,1659874784.821697,28.62009607673641,77.37104306336899,206.6116,-1,-1,-1,-1,16.37762641906738,35,-9999,1659874787.392898,-20.76923751831055,-26.19520950317383,-20.67903137207031,205.7960510253906,204.5571746826172,13.08023548126221,40077.767884125,-0.9726104736328125,-0.0558319091796875,-0.210235595703125,40077.696116125,0.07256155461072922,0.1096428707242012,-0.1267598122358322,40077.735459125,-46.0201416015625,-47.4620361328125,-16.12113952636719,40077.716262125,0.2550485394206077,-1.335658875451157,0.063541869395005,0.05952033400535583,0.05725111812353134,-0.1124496087431908,0.05311548709869385,-0.01972229033708572,0.05884644389152527,2,0.1034587812520165,-0.6107724769027163,0.08029422485728027,0.7809009643725179,-0.9705199003219604,-0.06349911540746689,-0.2325065284967422,-20.75310897827148,-26.33068084716797,-20.41826629638672,-1,2,40073.2594445,1,2,1659874783.008561,0,0,0,0,0,0,0,0,0,40074.367756,0,0.1875916,97.26679,1659874783.156116,3232235861,168214937,0,0,1,1659874783.131723,1,0.16,0
1659874787.517055,45,1659874784.821697,28.62009607673641,77.37104306336899,206.6116,-1,-1,-1,-1,16.37762641906738,35,-9999,1659874787.513603,-20.45016098022461,-26.17467498779297,-21.03446197509766,204.5549621582031,203.3160858154297,13.08123874664307,40077.867354125,-1.05859375,0.0655517578125,-0.2783050537109375,40077.795582125,0.1511517018079758,-0.04813450574874878,0.0884086936712265,40077.835527125,-45.94407653808594,-47.09101867675781,-15.98553466796875,40077.816990125,0.2674380800515205,-1.336253353810804,0.05914779159426085,0.1670478582382202,0.09062717854976654,0.1403538882732391,-0.05712586641311646,-0.05973738059401512,-0.05563579499721527,2,0.1055628015781354,-0.6106229911406662,0.08645364114626325,0.7800781589645767,-0.9709199070930481,-0.05911330878734589,-0.2319921106100082,-20.77278137207031,-26.12242889404297,-20.40475463867188,-1,2,40073.2594445,1,2,1659874783.008561,0,0,0,0,0,0,0,0,0,40074.367756,0,0.1875916,97.26679,1659874783.156116,3232235861,168214937,0,0,1,1659874783.131723,1,0.16,0
1659874787.610862,46,1659874784.821697,28.62009607673641,77.37104306336899,206.6116,-1,-1,-1,-1,16.37762641906738,35,-9999,1659874787.594316,-20.78864669799805,-25.99211883544922,-21.3187370300293,202.5869750976562,201.3480987548828,13.08185577392578,40077.966819125,-0.9869537353515625,-0.030548095703125,-0.3122406005859375,40077.895052125,0.1189668700098991,0.2071438580751419,0.397494375705719,40077.935596125,-45.9840087890625,-47.28388977050781,-16.80958557128906,40077.917717125,0.2789306529000588,-1.298732643104042,0.03968775998427759,0.3433972299098969,0.03195807337760925,0.4069507122039795,-0.08099710941314697,0.01199793815612793,-0.0630040168762207,2,0.09969297309252678,-0.5964957691398085,0.09881605960027673,0.790246594353044,-0.9624600410461426,-0.03967734053730965,-0.2685082256793976,-20.42550277709961,-25.93255996704102,-21.37197113037109,-1,2,40073.2594445,1,2,1659874783.008561,0,0,0,0,0,0,0,0,0,40075.369962,0,0.1928711,97.26675,1659874783.156116,3232235861,168214937,0,0,1,1659874783.131723,1,0.16,0
1659874787.710418,47,1659874784.821697,28.62009607673641,77.37104306336899,206.6116,-1,-1,-1,-1,16.37762641906738,35,-9999,1659874787.695427,-21.06991195678711,-26.71636581420898,-20.15884590148926,202.5071716308594,201.2682952880859,13.08275699615479,40078.066292625,-0.92706298828125,-0.021697998046875,-0.275482177734375,40077.994521125,0.248604491353035,-0.4916139543056488,-0.2262717485427856,40078.035666625,-46.29072570800781,-47.78190612792969,-15.55546569824219,40078.018448625,0.3023013703439907,-1.335542323691426,0.05621562112549666,0.2533213496208191,-0.1237649098038673,-0.05465945601463318,0.004259347915649414,0.06003125756978989,-0.04660537838935852,2,0.1150211698648607,-0.6086125341560692,0.1009812929399581,0.7785652783762079,-0.970919132232666,-0.0561860166490078,-0.232721820473671,-20.80735778808594,-26.57284545898438,-20.31771469116211,-1,2,40073.2594445,1,2,1659874783.008561,0,0,0,0,0,0,0,0,0,40075.369962,0,0.1928711,97.26675,1659874783.156116,3232235861,168214937,0,0,1,1659874783.131723,1,0.16,0
1659874787.811107,48,1659874784.821697,28.62009607673641,77.37104306336899,206.6116,-1,-1,-1,-1,16.37762641906738,35,-9999,1659874787.796246,-21.30608367919922,-26.89738464355469,-19.8167781829834,201.5732879638672,200.3344116210938,13.08359432220459,40078.165761625,-0.9102325439453125,-0.0349273681640625,-0.2476959228515625,40078.093994625,0.1228518858551979,-0.08337105810642242,0.002807770622894168,40078.135731625,-46.55747985839844,-48.12138366699219,-15.24366760253906,40078.119176625,0.3148931456283527,-1.340362011640107,0.0560189844045735,0.2284309864044189,-0.2083925008773804,0.0406329445540905,0.1113680601119995,0.03560397773981094,-0.06779506802558899,2,0.1190296524230744,-0.6097629806456425,0.1056549257128943,0.7764393618434975,-0.9720401167869568,-0.05598969012498856,-0.2280420958995819,-21.09645843505859,-26.76059341430664,-19.80348968505859,-1,2,40073.2594445,1,2,1659874783.008561,0,0,0,0,0,0,0,0,0,40075.369962,0,0.1928711,97.26675,1659874783.156116,3232235861,168214937,0,0,1,1659874783.131723,1,0.16,0
1659874787.917901,49,1659874784.821697,28.62009607673641,77.37104306336899,206.6116,-1,-1,-1,-1,16.37762641906738,35,-9999,1659874787.916722,-21.62182998657227,-26.98498153686523,-19.50307083129883,200.5650939941406,199.3262176513672,13.08477592468262,40078.265231625,-0.9202880859375,-0.06622314453125,-0.21826171875,40078.193459625,0.08875197172164917,-0.0133669376373291,0.08908167481422424,40078.235804625,-46.93096923828125,-48.04110717773438,-14.93959045410156,40078.219904625,0.3324380926184931,-1.352096038249715,0.04716446856645469,0.118385523557663,-0.06173388659954071,0.0406760610640049,0.06731879711151123,0.009732462465763092,-0.02992305159568787,2,0.1216388700579772,-0.613876283672147,0.1144762793969651,0.7715277617514033,-0.975094735622406,-0.0471469834446907,-0.2167197912931442,-21.48337173461914,-26.96826553344727,-19.5994758605957,-1,2,40073.2594445,1,2,1659874783.008561,0,0,0,0,0,0,0,0,0,40075.369962,0,0.1928711,97.26675,1659874783.156116,3232235861,168214937,0,0,1,1659874783.131723,1,0.16,0
1659874788.007125,50,1659874784.821697,28.62009607673641,77.37104306336899,206.6116,-1,-1,-1,-1,16.37762641906738,35,-9999,1659874787.997329,-21.21486282348633,-27.25770568847656,-20.27180480957031,201.4323425292969,200.1934661865234,13.08552646636963,40078.364696625,-0.9630126953125,-0.0399627685546875,-0.2544708251953125,40078.292929625,-0.1032222583889961,0.1086915954947472,-0.04438770562410355,40078.33586462501,-46.71322631835938,-48.13685607910156,-15.5042724609375,40078.320631625,0.3290058581001681,-1.344624176075849,0.04856211011888967,-0.1748679131269455,0.1010165885090828,-0.1082138493657112,0.02677351236343384,-0.006693743169307709,0.002381354570388794,2,0.1206991410946366,-0.6110969574262015,0.1131704196307121,0.7740702283587876,-0.9733830690383911,-0.04854302480816841,-0.2239844501018524,-21.37924957275391,-27.26681137084961,-19.95123672485352,-1,2,40073.2594445,1,2,1659874783.008561,0,0,0,0,0,0,0,0,0,40075.369962,0,0.1928711,97.26675,1659874783.156116,3232235861,168214937,0,0,1,1659874783.131723,1,0.16,0
1659874788.108416,51,1659874784.821697,28.62009607673641,77.37104306336899,206.6116,-1,-1,-1,-1,16.37762641906738,35,-9999,1659874788.098204,-20.66202163696289,-27.26844787597656,-21.43517303466797,204.0810394287109,202.8421630859375,13.08575916290283,40078.464166625,-1.088958740234375,-0.099853515625,-0.28839111328125,40078.392399625,-0.3262651860713959,0.08250819146633148,-0.1660486310720444,40078.435928625,-45.94068908691406,-48.42033386230469,-16.4525146484375,40078.421359625,0.2990043353610192,-1.33738899167071,0.05827922159505399,-0.365985780954361,0.02350286766886711,-0.2803879380226135,-0.01939886808395386,0.02167093753814697,-0.03237378597259521,2,0.1149072113624558,-0.6093814535818373,0.09895662543053507,0.7782405429013903,-0.9712323546409607,-0.05824623629450798,-0.2309011518955231,-20.73489379882812,-27.12955093383789,-20.87130737304688,-1,2,40073.2594445,1,2,1659874783.008561,0,0,0,0,0,0,0,0,0,40075.369962,0,0.1928711,97.26675,1659874783.156116,3232235861,168214937,0,0,1,1659874783.131723,1,0.16,0
1659874788.208641,52,1659874784.821697,28.62009607673641,77.37104306336899,206.6116,-1,-1,-1,-1,16.37762641906738,35,-9999,1659874788.198812,-18.94653701782227,-27.04695892333984,-23.73185348510742,207.0310974121094,205.7922210693359,13.08602523803711,40078.563635625,-1.066314697265625,0.011688232421875,-0.280120849609375,40078.491868625,-0.5579609870910645,0.8312798738479614,-0.2494087666273117,40078.535988625,-44.12565612792969,-48.27345275878906,-18.81219482421875,40078.522086625,0.2494537479557157,-1.298165991574077,0.07014871309313211,-0.3993767499923706,0.3232672810554504,-0.05518161132931709,-0.07944858074188232,-0.02948763221502304,-0.04830619692802429,2,0.1028691835834543,-0.5959163258357048,0.07801193933826134,0.7926006910010832,-0.9606974124908447,-0.07009119540452957,-0.2686033248901367,-19.17203903198242,-26.97155380249023,-22.96066284179688,-1,2,40073.2594445,1,2,1659874783.008561,0,0,0,0,0,0,0,0,0,40075.369962,0,0.1928711,97.26675,1659874783.156116,3232235861,168214937,0,0,1,1659874783.131723,1,0.16,0
1659874788.309656,53,1659874784.821697,28.62009607673641,77.37104306336899,206.6116,-1,-1,-1,-1,16.37762641906738,35,-9999,1659874788.299475,-18.53775405883789,-27.47524642944336,-23.60672378540039,209.2783508300781,208.0394744873047,13.08691883087158,40078.663105625,-0.9819488525390625,-0.0582122802734375,-0.2045135498046875,40078.591333625,-0.05008234083652496,-0.3549759387969971,-0.4089494347572327,40078.636053625,-44.01751708984375,-48.56831359863281,-18.83207702636719,40078.622814625,0.2230850026664426,-1.307981666472404,0.09230640109697404,-0.03163375332951546,-0.2537983357906342,-0.2029534131288528,0.002155125141143799,0.05860606580972672,0.04139342904090881,2,0.1040345984060657,-0.5998583255778963,0.06035623872367352,0.7910145360450644,-0.9615516066551208,-0.09217537194490433,-0.2586935758590698,-18.6810417175293,-27.24979019165039,-23.58243942260742,-1,2,40073.2594445,1,2,1659874783.008561,0,0,0,0,0,0,0,0,0,40075.369962,0,0.1928711,97.26675,1659874783.156116,3232235861,168214937,0,0,1,1659874783.131723,1,0.16,0
1659874788.406884,54,1659874784.821697,28.62009607673641,77.37104306336899,206.6116,-1,-1,-1,-1,16.37762641906738,35,-9999,1659874788.399945,-18.01305389404297,-27.53360366821289,-24.2380256652832,211.6876220703125,210.4487457275391,13.08776760101318,40078.762570625,-0.85223388671875,-0.026580810546875,-0.22784423828125,40078.690803625,-0.3431224822998047,-0.03128654882311821,-0.3261935412883759,40078.736122625,-43.14479064941406,-48.75726318359375,-19.5997314453125,40078.723542625,0.1924633208068836,-1.310084011558315,0.107794159977846,-0.1743889451026917,-0.058579470962286,-0.2217244952917099,0.09547102451324463,0.05482062697410583,-0.01431113481521606,2,0.1009714065078599,-0.6013887228335504,0.04341951895992263,0.79136040108862,-0.9605987071990967,-0.1075855270028114,-0.2562727630138397,-18.17470550537109,-27.36566543579102,-24.0313720703125,-1,2,40073.2594445,1,2,1659874783.008561,0,0,0,0,0,0,0,0,0,40075.369962,0,0.1928711,97.26675,1659874783.156116,3232235861,168214937,0,0,1,1659874783.131723,1,0.16,0
1659874788.506242,55,1659874784.821697,28.62009607673641,77.37104306336899,206.6116,-1,-1,-1,-1,16.37762641906738,35,-9999,1659874788.50097,-18.65763473510742,-27.4412727355957,-24.46868133544922,211.6737670898438,210.4348907470703,13.08809852600098,40078.862040625,-0.97125244140625,-0.0732574462890625,-0.2159576416015625,40078.790272625,-0.1702140718698502,-0.1002903878688812,0.1720503270626068,40078.83618762501,-43.86932373046875,-48.56173706054688,-19.86872863769531,40078.824269625,0.1797872353409207,-1.317865579596286,0.09943265341929182,-0.09916418790817261,-0.2068870365619659,0.09947563707828522,0.02141487598419189,0.05625438690185547,0.008711338043212891,2,0.09403062868211215,-0.6055204200796169,0.04058606763404649,0.7892123870984223,-0.9634010791778564,-0.09926889091730118,-0.249006524682045,-18.53704452514648,-27.19257736206055,-24.36937713623047,-1,2,40073.2594445,1,2,1659874783.008561,0,0,0,0,0,0,0,0,0,40075.369962,0,0.1928711,97.26675,1659874783.156116,3232235861,168214937,0,0,1,1659874783.131723,1,0.16,0
1659874788.609704,56,1659874784.821697,28.62009607673641,77.37104306336899,206.6116,-1,-1,-1,-1,16.37762641906738,35,-9999,1659874788.601579,-18.73545837402344,-27.6005973815918,-24.87247467041016,212.0377349853516,210.7988586425781,13.08888721466064,40078.96150962501,-0.9624786376953125,-0.099700927734375,-0.1900177001953125,40078.889742625,-0.1025889590382576,0.04693474993109703,-0.005303152836859226,40078.936251625,-43.99513244628906,-48.84663391113281,-20.040283203125,40078.924997625,0.1730248902471611,-1.3240360151002,0.09424939230683936,-0.06191310659050941,0.01544729061424732,0.005336209200322628,0.02059608697891235,-0.008169703185558319,0.04095514118671417,2,0.0900718139310841,-0.6085205485788947,0.03922724013830314,0.787433249347279,-0.9654051661491394,-0.0941099151968956,-0.2431796193122864,-18.76113891601562,-27.41580963134766,-24.58842468261719,-1,2,40073.2594445,1,2,1659874783.008561,0,0,0,0,0,0,0,0,0,40076.372455,0,0.2140198,97.26649,1659874783.156116,3232235861,168214937,0,0,1,1659874783.131723,1,0.16,0
1659874788.707505,57,1659874784.821697,28.62009607673641,77.37104306336899,206.6116,-1,-1,-1,-1,16.37762641906738,35,-9999,1659874788.70244,-18.61809921264648,-27.48819732666016,-24.86464309692383,212.4305725097656,211.1916961669922,13.08918952941895,40079.06097679167,-1.002716064453125,-0.114898681640625,-0.2098541259765625,40078.989207625,-0.1303305774927139,0.04122892767190933,-0.01667937822639942,40079.03631079167,-43.97067260742188,-48.59378051757812,-20.1153564453125,40079.02572179167,0.1628349217082854,-1.31898904352973,0.09381497718042342,-0.0971047505736351,0.04216771572828293,0.1157513409852982,-0.01774388551712036,-0.01429376006126404,0.04635334014892578,2,0.08671071731089006,-0.6070022450029277,0.03556730193663954,0.7891543939193483,-0.9642050862312317,-0.09367742389440536,-0.2480590492486954,-18.56527709960938,-27.70945739746094,-24.73104476928711,-1,2,40073.2594445,1,2,1659874783.008561,0,0,0,0,0,0,0,0,0,40076.372455,0,0.2140198,97.26649,1659874783.156116,3232235861,168214937,0,0,1,1659874783.131723,1,0.16,0
1659874788.804584,58,1659874784.821697,28.62009607673641,77.37104306336899,206.6116,-1,-1,-1,-1,16.37762641906738,35,-9999,1659874788.803116,-18.90190124511719,-27.54134750366211,-24.91337585449219,212.7621917724609,211.5233154296875,13.08952713012695,40079.16044179167,-0.9917755126953125,-0.06512451171875,-0.216766357421875,40079.08867479167,-0.1434495747089386,-0.02020966447889805,0.07250216603279114,40079.13636779167,-44.18119812011719,-48.48333740234375,-20.58645629882812,40079.12644979167,0.1529172888251993,-1.319048605248863,0.0844674523318301,-0.0623941570520401,-0.02896751090884209,0.02459408901631832,-0.04380917549133301,-0.009520262479782104,0.02456104755401611,2,0.08003119392547797,-0.6078573478277883,0.03451628759195913,0.7892485271031657,-0.965025782585144,-0.0843670442700386,-0.2482089102268219,-18.92855072021484,-27.36288452148438,-24.91499328613281,-1,2,40073.2594445,1,2,1659874783.008561,0,0,0,0,0,0,0,0,0,40076.372455,0,0.2140198,97.26649,1659874783.156116,3232235861,168214937,0,0,1,1659874783.131723,1,0.16,0
1659874788.903987,59,1659874784.821697,28.62009607673641,77.37104306336899,206.6116,-1,-1,-1,-1,16.37762641906738,35,-9999,1659874788.883554,-18.802734375,-28.05982208251953,-24.91069412231445,213.7028198242188,212.4639434814453,13.09008884429932,40079.25991079167,-1.045974731445312,-0.04168701171875,-0.2204437255859375,40079.18814379167,0.01858540251851082,-0.404632955789566,-0.2177794575691223,40079.23643079167,-44.08842468261719,-49.21563720703125,-20.28758239746094,40079.22717679167,0.1476712994634613,-1.336357418231463,0.0972972609382617,-0.1675068736076355,0.4043523073196411,-0.1335937231779099,-0.1208837032318115,-0.01250582933425903,0.05424261093139648,2,0.08371753584980096,-0.6143224469456077,0.02778959966605221,0.7841091299799063,-0.968044638633728,-0.09714382141828537,-0.2311986088752747,-18.94071197509766,-28.04845428466797,-24.76424407958984,-1,2,40073.2594445,1,2,1659874783.008561,0,0,0,0,0,0,0,0,0,40076.372455,0,0.2140198,97.26649,1659874783.156116,3232235861,168214937,0,0,1,1659874783.131723,1,0.16,0
1659874789.006595,60,1659874784.821697,28.62009607673641,77.37104306336899,206.6116,-1,-1,-1,-1,16.37762641906738,35,-9999,1659874789.004244,-18.0728874206543,-28.09241104125977,-25.74211883544922,215.7262878417969,214.4874114990234,13.09095764160156,40079.35938079167,-0.945770263671875,-0.07427978515625,-0.2239990234375,40079.28761279167,-0.2183893322944641,0.01847221702337265,-0.05940233916044235,40079.33650679167,-43.3243408203125,-49.31468200683594,-21.24453735351562,40079.32790379167,0.1221552598353255,-1.317840002639085,0.1058260941926489,0.0004192972555756569,-0.2049899697303772,-0.1146739646792412,-0.01364946365356445,-0.02593260258436203,-0.0269961804151535,2,0.07905845174461792,-0.6077138696457107,0.01587248617080855,0.7900517574727484,-0.9627605080604553,-0.105628676712513,-0.2488672286272049,-18.14134979248047,-27.8668098449707,-25.66426086425781,-1,2,40073.2594445,1,2,1659874783.008561,0,0,0,0,0,0,0,0,0,40076.372455,0,0.2140198,97.26649,1659874783.156116,3232235861,168214937,0,0,1,1659874783.131723,1,0.16,0
1659874789.105346,61,1659874784.821697,28.62009607673641,77.37104306336899,206.6116,-1,-1,-1,-1,16.37762641906738,35,-9999,1659874789.085137,-18.48603439331055,-27.53779983520508,-26.03408432006836,216.3054504394531,215.0665740966797,13.09153175354004,40079.45884979167,-0.9628143310546875,-0.0532684326171875,-0.285491943359375,40079.38707779167,-0.3617888391017914,-0.1112258583307266,0.05605394765734673,40079.43658179167,-43.80392456054688,-48.66778564453125,-21.35606384277344,40079.42863179167,0.09873970519953754,-1.328364237511212,0.09886257044334257,-0.2296235114336014,0.009882224723696709,0.2692511975765228,-0.006990373134613037,0.05753342807292938,-0.05619737505912781,2,0.06924279976300313,-0.6129921593216321,0.008390931172361504,0.7870042486287855,-0.9660168886184692,-0.0987016037106514,-0.2388920933008194,-18.54307556152344,-27.59135818481445,-26.02565383911133,-1,2,40073.2594445,1,2,1659874783.008561,0,0,0,0,0,0,0,0,0,40076.372455,0,0.2140198,97.26649,1659874783.156116,3232235861,168214937,0,0,1,1659874783.131723,1,0.16,0
1659874789.205848,62,1659874784.821697,28.62009607673641,77.37104306336899,206.6116,-1,-1,-1,-1,16.37762641906738,35,-9999,1659874789.186137,-19.45878601074219,-27.33559799194336,-26.00358581542969,216.0513763427734,214.8125,13.09220027923584,40079.55831479167,-0.9524078369140625,-0.0475921630859375,-0.23187255859375,40079.48654779167,-0.02696663700044155,-0.2614635527133942,0.08742119371891022,40079.53665379167,-44.79557800292969,-48.44729614257812,-21.33892822265625,40079.52935879167,0.09334456788701699,-1.345191016652254,0.08362922186215471,-0.1722018718719482,-0.1435494720935822,0.1590141505002975,0.03547674417495728,0.03992217779159546,0.01304543018341064,2,0.06170427428573916,-0.6202703290028547,0.0104469330828395,0.781887645892405,-0.9712526798248291,-0.08353177458047867,-0.2229146063327789,-19.46831130981445,-27.43512344360352,-25.9615592956543,-1,2,40073.2594445,1,2,1659874783.008561,0,0,0,0,0,0,0,0,0,40076.372455,0,0.2140198,97.26649,1659874783.156116,3232235861,168214937,0,0,1,1659874783.131723,1,0.16,0
1659874789.30183,63,1659874784.821697,28.62009607673641,77.37104306336899,206.6116,-1,-1,-1,-1,16.37762641906738,35,-9999,1659874789.286323,-19.7204704284668,-27.08642578125,-26.19040298461914,216.9720611572266,215.7331848144531,13.09278202056885,40079.65778379167,-0.9158477783203125,-0.0750732421875,-0.2108306884765625,40079.58601679167,-0.1962360888719559,-0.07284730672836304,-0.01266519539058208,40079.63671179167,-45.07521057128906,-48.14137268066406,-21.4903564453125,40079.63008579167,0.07524617164872847,-1.349664671840339,0.07837164385119332,-0.1252493262290955,0.006075842306017876,-0.08595191687345505,0.05410647392272949,0.01055768877267838,-0.0107092559337616,2,0.05404932702649198,-0.6226944347583012,0.004888670676574114,0.780580825328602,-0.9726551175117493,-0.07829143851995468,-0.2186606228351593,-19.68488311767578,-27.32859802246094,-26.23733139038086,-1,2,40073.2594445,1,2,1659874783.008561,0,0,0,0,0,0,0,0,0,40076.372455,0,0.2140198,97.26649,1659874783.156116,3232235861,168214937,0,0,1,1659874783.131723,1,0.16,0
1659874789.405896,64,1659874784.821697,28.62009607673641,77.37104306336899,206.6116,-1,-1,-1,-1,16.37762641906738,35,-9999,1659874789.387215,-19.50412368774414,-26.73780059814453,-26.81491851806641,218.5435638427734,217.3046875,13.09359359741211,40079.75725379167,-0.95953369140625,-0.1261749267578125,-0.2448577880859375,40079.68548679167,-0.333722323179245,0.1092284843325615,-0.04842052981257439,40079.73676179167,-44.81864929199219,-47.85874938964844,-22.10014343261719,40079.73081379167,0.04733434589639872,-1.340631922243782,0.0772834295652256,-0.3356708288192749,0.05864918604493141,-0.007698070723563433,0.0211988091468811,-0.02768239378929138,-0.006704509258270264,2,0.04495510929740407,-0.6198795899549006,-0.005462209286397957,0.7833892228852981,-0.9707228541374207,-0.07720652222633362,-0.227456659078598,-19.56962585449219,-26.81407928466797,-26.89886856079102,-1,2,40073.2594445,1,2,1659874783.008561,0,0,0,0,0,0,0,0,0,40076.372455,0,0.2140198,97.26649,1659874783.156116,3232235861,168214937,0,0,1,1659874783.131723,1,0.16,0
1659874789.503022,65,1659874784.821697,28.62009607673641,77.37104306336899,206.6116,-1,-1,-1,-1,16.37762641906738,35,-9999,1659874789.487743,-19.28548049926758,-26.26688003540039,-27.47595596313477,221.3007659912109,220.0618896484375,13.09244823455811,40079.85672279167,-0.99554443359375,-0.12860107421875,-0.29351806640625,40079.78495079167,-0.4067653715610504,-0.1021665781736374,-0.1197916492819786,40079.83681279167,-44.60671997070312,-47.36784362792969,-22.75624084472656,40079.83154079167,0.005876451132405666,-1.343899410991696,0.08087220206285654,-0.4194166660308838,-0.05754778161644936,-0.3022044897079468,-0.01903462409973145,-0.03527426719665527,-0.03856676816940308,2,0.03346449965476295,-0.6219085160434782,-0.02286742778347356,0.7820403763585936,-0.9711846709251404,-0.08078407496213913,-0.2242198437452316,-19.33411026000977,-26.39339828491211,-27.57232666015625,-1,2,40073.2594445,1,2,1659874783.008561,0,0,0,0,0,0,0,0,0,40076.372455,0,0.2140198,97.26649,1659874783.156116,3232235861,168214937,0,0,1,1659874783.131723,1,0.16,0
1659874789.600161,66,1659874784.821697,28.62009607673641,77.37104306336899,206.6116,-1,-1,-1,-1,16.37762641906738,35,-9999,1659874789.588683,-17.83100891113281,-25.83088684082031,-29.32699584960938,224.8761138916016,223.6372375488281,13.09256839752197,40079.95618779167,-0.9729156494140625,-0.0748748779296875,-0.3360443115234375,40079.88442079167,-0.4069496393203735,0.2512503266334534,-0.309294193983078,40079.93686579167,-43.06353759765625,-46.92430114746094,-24.77680969238281,40079.93226779167,-0.04194297494686386,-1.315385463887398,0.1027018499497753,-0.4681892693042755,0.545956015586853,-0.2900219857692719,-0.03070282936096191,-0.0579400509595871,-0.06372103095054626,2,0.02781070158333582,-0.6112042831651383,-0.04794357616171824,0.7895299334034225,-0.9624614715576172,-0.1025214046239853,-0.2513117790222168,-18.10261154174805,-25.97637176513672,-28.99723815917969,-1,2,40073.2594445,1,2,1659874783.008561,0,0,0,0,0,0,0,0,0,40077.374558,0,0.2325134,97.26628,1659874783.156116,3232235861,168214937,0,0,1,1659874783.131723,1,0.16,0
1659874789.699342,67,1659874784.821697,28.62009607673641,77.37104306336899,206.6116,-1,-1,-1,-1,16.37762641906738,35,-9999,1659874789.689329,-17.64800262451172,-26.12397003173828,-29.22146606445312,226.0821533203125,224.8432769775391,13.09339427947998,40080.05565612501,-0.96820068359375,-0.06451416015625,-0.258026123046875,40079.98388979167,-0.1990185528993607,-0.2004982084035873,-0.2387228310108185,40080.036927125,-43.02055358886719,-47.3211669921875,-24.49020385742188,40080.032995125,-0.06060213974730584,-1.321801631084383,0.1167116282415783,0.2887202203273773,-0.222986251115799,0.08426150679588318,0.01449298858642578,0.0492471307516098,-0.05871328711509705,2,0.02745596304904613,-0.6138969915651999,-0.05966017671504648,0.7866494423435779,-0.9625673890113831,-0.1164468452334404,-0.2447533011436462,-17.56764984130859,-26.00858688354492,-29.34685516357422,-1,2,40073.2594445,1,2,1659874783.008561,0,0,0,0,0,0,0,0,0,40077.374558,0,0.2325134,97.26628,1659874783.156116,3232235861,168214937,0,0,1,1659874783.131723,1,0.16,0
1659874789.806922,68,1659874784.821697,28.62009607673641,77.37104306336899,206.6116,-1,-1,-1,-1,16.37762641906738,35,-9999,1659874789.790288,-17.59737014770508,-27.21248626708984,-28.4918327331543,225.1525115966797,223.9136352539062,13.09421634674072,40080.15512512501,-0.9325714111328125,-0.0518951416015625,-0.2524871826171875,40080.083358125,0.1701094061136246,0.0639619380235672,0.01272937748581171,40080.13698612501,-42.9002685546875,-48.25018310546875,-23.97219848632812,40080.133722125,-0.03958044761207937,-1.322321234982208,0.1213764815079211,0.2345265597105026,0.132432222366333,-0.04910697042942047,0.02052223682403564,0.05719010531902313,-0.02765718102455139,2,0.03573255525428254,-0.6137301946741001,-0.05282469600492345,0.7869358047654101,-0.9621574282646179,-0.1210786774754524,-0.244116872549057,-17.78126525878906,-26.85314178466797,-28.52663421630859,-1,2,40073.2594445,1,2,1659874783.008561,0,0,0,0,0,0,0,0,0,40077.374558,0,0.2325134,97.26628,1659874783.156116,3232235861,168214937,0,0,1,1659874783.131723,1,0.16,0
1659874789.900761,69,1659874784.821697,28.62009607673641,77.37104306336899,206.6116,-1,-1,-1,-1,16.37762641906738,35,-9999,1659874789.891261,-17.69733428955078,-28.24538040161133,-27.48653411865234,222.9560394287109,221.7171630859375,13.09492683410645,40080.254594125,-0.9391937255859375,-0.1065521240234375,-0.153076171875,40080.182823125,0.4301902651786804,0.138036698102951,0.118652880191803,40080.237042125,-42.84518432617188,-49.36163330078125,-22.854248046875,40080.234449125,-0.002991548498501593,-1.316477922841714,0.1215335968615504,0.2382801920175552,-0.03029504418373108,0.1499482691287994,0.05520904064178467,0.006137579679489136,0.09799695014953613,2,0.04712788904430248,-0.6106667763554348,-0.03833070800395522,0.7895542941580405,-0.960696280002594,-0.1212346330285072,-0.2497300952672958,-17.50337219238281,-28.23443603515625,-27.66276931762695,-1,2,40073.2594445,1,2,1659874783.008561,0,0,0,0,0,0,0,0,0,40077.374558,0,0.2325134,97.26628,1659874783.156116,3232235861,168214937,0,0,1,1659874783.131723,1,0.16,0
1659874789.997343,70,1659874784.821697,28.62009607673641,77.37104306336899,206.6116,-1,-1,-1,-1,16.37762641906738,35,-9999,1659874789.991469,-17.5350341796875,-28.7500114440918,-27.36917877197266,222.5351867675781,221.2963104248047,13.09536552429199,40080.35405912501,-0.9306793212890625,-0.1007080078125,-0.2330474853515625,40080.282292125,0.02165922336280346,0.07580288499593735,-0.06295419484376907,40080.337092125,-42.74343872070312,-49.92082214355469,-22.74617004394531,40080.335176125,0.007366862523440436,-1.314759531671177,0.1231536609756056,0.1560322493314743,0.04704475402832031,-0.003628169652074575,0.03496438264846802,0.03612689673900604,0.02186909317970276,2,0.0509593166894321,-0.6097031318150131,-0.03469191612549566,0.7902288929540607,-0.9600743055343628,-0.1228425875306129,-0.2513304650783539,-17.46259689331055,-28.70413970947266,-27.42332077026367,-1,2,40073.2594445,1,2,1659874783.008561,0,0,0,0,0,0,0,0,0,40077.374558,0,0.2325134,97.26628,1659874783.156116,3232235861,168214937,0,0,1,1659874783.131723,1,0.16,0
1659874790.097308,71,1659874784.821697,28.62009607673641,77.37104306336899,206.6116,-1,-1,-1,-1,16.37762641906738,35,-9999,1659874790.092855,-17.41614532470703,-29.15042495727539,-27.01300430297852,221.6630554199219,220.4241790771484,13.09619998931885,40080.453528125,-0.9500274658203125,-0.13372802734375,-0.2528228759765625,40080.38176112501,0.1234851852059364,0.1075368449091911,-0.04514697194099426,40080.437152125,-42.75804138183594,-50.44424438476562,-22.24345397949219,40080.43590312501,0.02275520718875897,-1.308345798534234,0.1267445513923202,0.1926498860120773,0.1023925319314003,0.142707347869873,0.01509356498718262,-0.007093667984008789,0.01597303152084351,2,0.05716151547792669,-0.6066705312119944,-0.02952352278592402,0.7923458584582408,-0.9580105543136597,-0.1264054775238037,-0.2573668658733368,-17.41476821899414,-29.27924346923828,-26.98866653442383,-1,2,40073.2594445,1,2,1659874783.008561,0,0,0,0,0,0,0,0,0,40077.374558,0,0.2325134,97.26628,1659874783.156116,3232235861,168214937,0,0,1,1659874783.131723,1,0.16,0
1659874790.199336,72,1659874784.821697,28.62009607673641,77.37104306336899,206.6116,-1,-1,-1,-1,16.37762641906738,35,-9999,1659874790.193002,-18.11133575439453,-29.83190155029297,-26.06866836547852,219.8194580078125,218.5805816650391,13.09659576416016,40080.552997125,-0.9692535400390625,-0.146392822265625,-0.2256011962890625,40080.48123012501,0.2820809483528137,-0.1095294207334518,0.13904869556427,40080.537206125,-43.2420654296875,-50.81114196777344,-21.33872985839844,40080.536630125,0.05179672584564604,-1.319123330358925,0.1210010796114138,0.2487940192222595,-0.07654273509979248,0.1137824356555939,-0.009867250919342041,-0.02800615131855011,0.02630254626274109,2,0.06360496763306039,-0.6102069189896074,-0.01661116622275516,0.7895101140297267,-0.9614159464836121,-0.1207060292363167,-0.2472038418054581,-17.91738128662109,-29.67689895629883,-26.12522125244141,-1,2,40073.2594445,1,2,1659874783.008561,0,0,0,0,0,0,0,0,0,40077.374558,0,0.2325134,97.26628,1659874783.156116,3232235861,168214937,0,0,1,1659874783.131723,1,0.16,0
1659874790.2991,73,1659874784.821697,28.62009607673641,77.37104306336899,206.6116,-1,-1,-1,-1,16.37762641906738,35,-9999,1659874790.294213,-18.19665145874023,-30.95648574829102,-25.19772338867188,218.6827087402344,217.4438323974609,13.09616088867188,40080.652466125,-1.004974365234375,-0.1808013916015625,-0.216156005859375,40080.58069512501,0.2923045754432678,-0.09901952743530273,0.005936984904110432,40080.637262125,-43.41653442382812,-52.19241333007812,-20.36714172363281,40080.637357125,0.0785883627123949,-1.328701414807204,0.1269662988538681,0.1923379004001617,0.1415689587593079,-0.01145138312131166,-0.02420520782470703,-0.04479178786277771,0.0228264331817627,2,0.07408098251545683,-0.6128689727921651,-0.008217204923928079,0.7866614643028693,-0.96302330493927,-0.1266254484653473,-0.2378072589635849,-18.12720108032227,-30.98101043701172,-25.10829162597656,-1,2,40073.2594445,1,2,1659874783.008561,0,0,0,0,0,0,0,0,0,40077.374558,0,0.2325134,97.26628,1659874783.156116,3232235861,168214937,0,0,1,1659874783.131723,1,0.16,0
1659874790.397501,74,1659874784.821697,28.62009607673641,77.37104306336899,206.6116,-1,-1,-1,-1,16.37762641906738,35,-9999,1659874790.394536,-17.58399200439453,-31.31484603881836,-25.31972503662109,217.5699310302734,216.3310546875,13.09556579589844,40080.751931125,-1.016265869140625,-0.093048095703125,-0.340240478515625,40080.68016412501,-0.01073440350592136,0.4760080873966217,-0.01738325133919716,40080.737316125,-42.812255859375,-52.64703369140625,-20.84396362304688,40080.73808412501,0.08846595965173616,-1.298518543177579,0.1232080247212072,0.3104504942893982,-0.03177016973495483,0.2640381157398224,-0.05411970615386963,0.04518354684114456,-0.07484814524650574,2,0.07567423164735804,-0.6006910142556248,-0.002030930973834333,0.7958892602801921,-0.9558596611022949,-0.1228965371847153,-0.2668874263763428,-17.52220916748047,-31.45007705688477,-25.53319549560547,-1,2,40073.2594445,1,2,1659874783.008561,0,0,0,0,0,0,0,0,0,40077.374558,0,0.2325134,97.26628,1659874783.156116,3232235861,168214937,0,0,1,1659874783.131723,1,0.16,0
1659874790.495052,75,1659874790.428519,28.61995851515734,77.3709843242365,206.6661,-1,-1,-1,-1,19.22420692443848,62.66666666666666,-9999,1659874790.474972,-18.12166213989258,-32.36442565917969,-24.24041748046875,216.1458892822266,214.9070129394531,13.0960578918457,40080.851400125,-0.9635772705078125,-0.0613250732421875,-0.327850341796875,40080.779633125,0.4193658530712128,-0.2718858420848846,-0.03520352765917778,40080.837376125,-43.40200805664062,-53.73466491699219,-19.4263916015625,40080.838811125,0.1297391116740393,-1.319278665776832,0.1311426985290295,0.3995106220245361,0.1014541685581207,-0.02471126429736614,-0.004212617874145508,0.07670524716377258,-0.07543671131134033,2,0.09131019850849598,-0.6068722084497489,0.01104380187027959,0.7894598263465479,-0.9602192640304565,-0.1307671070098877,-0.2467371374368668,-18.07856750488281,-32.52105712890625,-24.1455192565918,-1,2,40073.2594445,1,2,1659874783.008561,0,0,0,0,0,0,0,0,0,40077.374558,0,0.2325134,97.26628,1659874783.156116,3232235861,168214937,0,0,1,1659874783.131723,1,0.16,0
1659874790.604209,76,1659874790.428519,28.61995851515734,77.3709843242365,206.6661,-1,-1,-1,-1,19.22420692443848,62.66666666666666,-9999,1659874790.595915,-17.45105743408203,-33.95470809936523,-23.19336318969727,214.0388793945312,212.8000030517578,13.09694766998291,40080.950869125,-0.9817962646484375,-0.0364990234375,-0.2809295654296875,40080.879102125,0.3834054470062256,0.328573077917099,-0.09844880551099777,40080.937434125,-42.70826721191406,-55.27528381347656,-18.77450561523438,40080.939538125,0.1706183807937197,-1.302334200299853,0.1476451200486131,0.4579963088035583,0.009212655015289783,0.04074018076062202,-0.01600617170333862,0.1098473072052002,-0.02990347146987915,2,0.109953929169989,-0.597267575811036,0.02304434945582551,0.7941351886006078,-0.9536900520324707,-0.1471092849969864,-0.2623631656169891,-17.36491012573242,-34.03770446777344,-23.48330688476562,-1,2,40073.2594445,1,2,1659874783.008561,0,0,0,0,0,0,0,0,0,40078.377563,0,0.2483826,97.26609,1659874783.156116,3232235861,168214937,0,0,1,1659874783.131723,1,0.16,0
1659874790.696343,77,1659874790.428519,28.61995851515734,77.3709843242365,206.6661,-1,-1,-1,-1,19.22420692443848,62.66666666666666,-9999,1659874790.676583,-17.71652984619141,-34.7823600769043,-22.67576599121094,212.7725677490234,211.53369140625,13.09757709503174,40081.05033791667,-0.93072509765625,0.001373291015625,-0.2867431640625,40080.978567125,0.2764755189418793,-0.002396312309429049,0.03268018364906311,40081.03749391667,-43.03822326660156,-56.06327819824219,-17.88632202148438,40081.04026491667,0.2005622462514313,-1.308074291742841,0.1485129012548235,0.2191009521484375,0.04902355745434761,0.07750153541564941,0.02701699733734131,0.1400482952594757,-0.03417932987213135,2,0.1193230064762572,-0.5977761649322011,0.0343252358577889,0.791989696003957,-0.9550567269325256,-0.1479675620794296,-0.2568513453006744,-17.7030143737793,-34.87509155273438,-22.59845352172852,-1,2,40073.2594445,1,2,1659874783.008561,0,0,0,0,0,0,0,0,0,40078.377563,0,0.2483826,97.26609,1659874783.156116,3232235861,168214937,0,0,1,1659874783.131723,1,0.16,0
1659874790.793773,78,1659874790.428519,28.61995851515734,77.3709843242365,206.6661,-1,-1,-1,-1,19.22420692443848,62.66666666666666,-9999,1659874790.777548,-17.36881256103516,-35.69126892089844,-22.01812362670898,212.4638214111328,211.2249450683594,13.09825420379639,40081.14980291667,-0.91339111328125,-0.0627288818359375,-0.2299041748046875,40081.07803591667,0.1973104029893875,-0.03790557011961937,-0.08247117698192596,40081.13755691667,-42.71992492675781,-56.78532409667969,-17.4229736328125,40081.14099191667,0.213312607233497,-1.315153251541609,0.1651743148139627,-0.02964947000145912,-0.07560811936855316,-0.3807821571826935,0.04017883539199829,0.1126511991024017,0.02289426326751709,2,0.1297635309117584,-0.5987055951291708,0.03383529955640091,0.7896634774842644,-0.9543330669403076,-0.1644242703914642,-0.2494260668754578,-17.3763427734375,-35.65032196044922,-22.07980728149414,-1,2,40073.2594445,1,2,1659874783.008561,0,0,0,0,0,0,0,0,0,40078.377563,0,0.2483826,97.26609,1659874783.156116,3232235861,168214937,0,0,1,1659874783.131723,1,0.16,0
1659874790.892782,79,1659874790.844409,28.61998320441207,77.37093450085771,206.6389,-1,-1,-1,-1,16.58584403991699,35,-9999,1659874790.877839,-15.91042327880859,-35.97098159790039,-22.98851013183594,214.1138000488281,212.8749237060547,13.09770679473877,40081.24927091667,-0.9198760986328125,-0.0923309326171875,-0.2602081298828125,40081.17750491667,-0.2045448869466782,0.3947899341583252,-0.1788573712110519,40081.23762291667,-41.26895141601562,-56.92616271972656,-18.47650146484375,40081.24171891667,0.1896479688452899,-1.275158828108409,0.1757066520509954,-0.1960539668798447,-0.0356484092772007,0.09832017868757248,0.03540885448455811,0.09681627154350281,0.02238357067108154,2,0.1263283298236584,-0.5836173219785401,0.02379421854584579,0.8017892328204472,-0.9418879151344299,-0.1748039573431015,-0.2868639528751373,-15.92325973510742,-35.83068466186523,-23.10967636108398,-1,2,40073.2594445,1,2,1659874783.008561,0,0,0,0,0,0,0,0,0,40078.377563,0,0.2483826,97.26609,1659874783.156116,3232235861,168214937,0,0,1,1659874783.131723,1,0.16,0
1659874790.996126,80,1659874790.844409,28.61998320441207,77.37093450085771,206.6389,-1,-1,-1,-1,16.58584403991699,35,-9999,1659874790.979055,-16.55270767211914,-35.35261154174805,-23.79970169067383,214.0245361328125,212.7856597900391,13.09672927856445,40081.34873991667,-0.9824981689453125,-0.1303558349609375,-0.2805938720703125,40081.27697291667,-0.1127667650580406,-0.07258738577365875,0.218701183795929,40081.33768791667,-41.98135375976562,-56.31965637207031,-19.28587341308594,40081.34244591667,0.1755352803739474,-1.284899885550243,0.1517915435251588,-0.2943220436573029,-0.09436327219009399,0.2296094298362732,-0.03601258993148804,0.02527855336666107,0.0008210241794586182,2,0.1128405344597383,-0.58981314559786,0.02472211957990111,0.7992348725673196,-0.948377788066864,-0.1512093245983124,-0.2787749469280243,-16.61570739746094,-35.22080230712891,-23.91956329345703,-1,2,40073.2594445,1,2,1659874783.008561,0,0,0,0,0,0,0,0,0,40078.377563,0,0.2483826,97.26609,1659874783.156116,3232235861,168214937,0,0,1,1659874783.131723,1,0.16,0
1659874791.094216,81,1659874790.844409,28.61998320441207,77.37093450085771,206.6389,-1,-1,-1,-1,16.58584403991699,35,-9999,1659874791.079316,-16.91619873046875,-34.58959579467773,-24.62369155883789,214.7059020996094,213.4670257568359,13.09659385681152,40081.44820891667,-0.8975830078125,-0.1281890869140625,-0.276885986328125,40081.37643791667,-0.2561217844486237,0.06919052451848984,0.1765705049037933,40081.43775991667,-42.00111389160156,-55.73600769042969,-19.98777770996094,40081.44317291667,0.1536841534008342,-1.280093560388894,0.1427380311525536,-0.1536643505096436,-0.04373091086745262,-0.1357400268316269,0.05109798908233643,0.009075149893760681,0.00214049220085144,2,0.1027561857777018,-0.5895641010746878,0.018953100866272,0.8009345857951796,-0.9482996463775635,-0.1422538310289383,-0.2837106883525848,-16.73329544067383,-34.58610153198242,-24.65621566772461,-1,2,40073.2594445,1,2,1659874783.008561,0,0,0,0,0,0,0,0,0,40078.377563,0,0.2483826,97.26609,1659874783.156116,3232235861,168214937,0,0,1,1659874783.131723,1,0.16,0
1659874791.191032,82,1659874790.844409,28.61998320441207,77.37093450085771,206.6389,-1,-1,-1,-1,16.58584403991699,35,-9999,1659874791.18052,-16.73456573486328,-34.08958053588867,-25.37953186035156,215.7098236083984,214.470947265625,13.09664535522461,40081.54767391667,-0.955596923828125,-0.0930328369140625,-0.2957916259765625,40081.47590691667,-0.1773689240217209,-0.006653907708823681,-0.008551410399377346,40081.53782491667,-42.15934753417969,-55.28958129882812,-20.63868713378906,40081.44317291667,0.1536841534008342,-1.280093560388894,0.1427380311525536,-0.1536643505096436,-0.04373091086745262,-0.1357400268316269,0.05109798908233643,0.009075149893760681,0.00214049220085144,2,0.1027561857777018,-0.5895641010746878,0.018953100866272,0.8009345857951796,-0.9482996463775635,-0.1422538310289383,-0.2837106883525848,-16.73329544067383,-34.58610153198242,-24.65621566772461,-1,2,40073.2594445,1,2,1659874783.008561,0,0,0,0,0,0,0,0,0,40078.377563,0,0.2483826,97.26609,1659874783.156116,3232235861,168214937,0,0,1,1659874783.131723,1,0.16,0
1659874791.291048,83,1659874790.844409,28.61998320441207,77.37093450085771,206.6389,-1,-1,-1,-1,16.58584403991699,35,-9999,1659874791.280811,-17.28426742553711,-33.64584732055664,-25.77125549316406,215.7952117919922,214.5563354492188,13.09676265716553,40081.64714191667,-0.996673583984375,-0.1037139892578125,-0.2778778076171875,40081.57537591667,-0.1401464492082596,-0.0711415559053421,0.08997942507266998,40081.63789791667,-42.71826171875,-54.6531982421875,-21.07200622558594,40081.54389991667,0.1325229841837071,-1.275789305043519,0.1353507301187547,-0.2262254059314728,0.01163318753242493,0.1448838263750076,-0.005380928516387939,0.04176771640777588,-0.004652202129364014,2,0.09354633173295521,-0.5892413507265479,0.01288863078422819,0.8024198667506162,-0.9480493068695068,-0.1349378377199173,-0.2880874276161194,-16.7947998046875,-34.12442398071289,-25.33699035644531,-1,2,40073.2594445,1,2,1659874783.008561,0,0,0,0,0,0,0,0,0,40078.377563,0,0.2483826,97.26609,1659874783.156116,3232235861,168214937,0,0,1,1659874783.131723,1,0.16,0
1659874791.394393,84,1659874790.844409,28.61998320441207,77.37093450085771,206.6389,-1,-1,-1,-1,16.58584403991699,35,-9999,1659874791.381418,-17.38328552246094,-33.59658432006836,-26.24837112426758,216.3300170898438,215.0911407470703,13.09719181060791,40081.74661091667,-0.9401702880859375,-0.1244354248046875,-0.2716217041015625,40081.67484491667,-0.1107044070959091,-0.04383856058120728,0.001462874352000654,40081.73797291667,-42.68486022949219,-54.80563354492188,-21.57998657226562,40081.64462591667,0.1221720468002579,-1.284514926867091,0.1221903445434934,-0.1143193542957306,-0.1220439523458481,0.03145940974354744,-0.04344213008880615,0.01733329892158508,0.001656234264373779,2,0.08529988963314508,-0.5937871433974854,0.01228743946706412,0.7999937579691254,-0.9521482586860657,-0.1218865141272545,-0.2802815139293671,-17.35109329223633,-33.54286956787109,-25.75846862792969,-1,2,40073.2594445,1,2,1659874783.008561,0,0,0,0,0,0,0,0,0,40078.377563,0,0.2483826,97.26609,1659874783.156116,3232235861,168214937,0,0,1,1659874783.131723,1,0.16,0
1659874791.49203,85,1659874790.844409,28.61998320441207,77.37093450085771,206.6389,-1,-1,-1,-1,16.58584403991699,35,-9999,1659874791.482022,-17.39992141723633,-33.19010925292969,-26.48223876953125,216.9788818359375,215.7400054931641,13.09709453582764,40081.84607991667,-0.945526123046875,-0.11834716796875,-0.2670135498046875,40081.77430891667,-0.1390375196933746,0.0001973402395378798,-0.01632970385253429,40081.83804091667,-42.72257995605469,-54.36250305175781,-21.77413940429688,40081.74535291667,0.1123272010306202,-1.289215717202983,0.1222914821225988,-0.07971908897161484,-0.07603497058153152,-0.06709243357181549,0.01218956708908081,-0.002479039132595062,0.003246873617172241,2,0.08243557866714774,-0.5960745008961421,0.008125335709989523,0.7986448765528196,-0.9534433484077454,-0.1219868957996368,-0.2757991254329681,-17.51932525634766,-33.47361755371094,-26.14056015014648,-1,2,40073.2594445,1,2,1659874783.008561,0,0,0,0,0,0,0,0,0,40078.377563,0,0.2483826,97.26609,1659874783.156116,3232235861,168214937,0,0,1,1659874783.131723,1,0.16,0
1659874791.587819,86,1659874790.844409,28.61998320441207,77.37093450085771,206.6389,-1,-1,-1,-1,16.58584403991699,35,-9999,1659874791.583111,-17.49942398071289,-32.68474578857422,-27.07593154907227,217.5758514404297,216.3369750976562,13.09685707092285,40081.94554491667,-0.9539337158203125,-0.1137237548828125,-0.293121337890625,40081.87377791667,-0.2033645659685135,0.02511041238903999,-0.02896294184029102,40081.93810491667,-42.82369995117188,-53.8133544921875,-22.4637451171875,40081.84607991667,0.1009419824355303,-1.291171786730662,0.1212436781995012,-0.08530348539352417,-0.08909854292869568,-0.02439252100884914,0.008577048778533936,0.00259968638420105,0.006955385208129883,2,0.07862831257446129,-0.5973551873832943,0.003817064850067386,0.7981039635337239,-0.9541033506393433,-0.1209468469023705,-0.2739687263965607,-17.4774055480957,-33.1580696105957,-26.51972198486328,-1,2,40073.2594445,1,2,1659874783.008561,0,0,0,0,0,0,0,0,0,40078.377563,0,0.2483826,97.26609,1659874783.156116,3232235861,168214937,0,0,1,1659874783.131723,1,0.16,0
1659874791.688555,87,1659874790.844409,28.61998320441207,77.37093450085771,206.6389,-1,-1,-1,-1,16.58584403991699,35,-9999,1659874791.683504,-17.29712677001953,-32.78522872924805,-27.50267791748047,217.7658386230469,216.5269622802734,13.09664344787598,40082.0450135,-0.9520263671875,-0.1068267822265625,-0.2815704345703125,40081.97324691667,-0.0859665721654892,0.01159034296870232,-0.003309244057163596,40082.0381745,-42.637939453125,-54.01692199707031,-22.86802673339844,40081.94680691667,0.08741948882010205,-1.289831557542631,0.1164924260522679,-0.06253284215927124,-0.003549325279891491,0.006371390540152788,0.0002817511558532715,0.003069937229156494,-0.01660382747650146,2,0.07269910876421126,-0.5975057478099087,-0.0001000689004074795,0.7985623675262501,-0.9542766809463501,-0.1162291318178177,-0.2754034399986267,-17.62923812866211,-32.66725158691406,-27.06553268432617,-1,2,40073.2594445,1,2,1659874783.008561,0,0,0,0,0,0,0,0,0,40079.379633,0,0.2483826,97.26609,1659874783.156116,3232235861,168214937,0,0,1,1659874783.131723,1,0.16,0
1659874791.789248,88,1659874790.844409,28.61998320441207,77.37093450085771,206.6389,-1,-1,-1,-1,16.58584403991699,35,-9999,1659874791.784615,-17.2336540222168,-32.55421447753906,-27.43756484985352,217.7285614013672,216.4896850585938,13.09647750854492,40082.1444825,-0.9522705078125,-0.11492919921875,-0.27130126953125,40082.07271550001,-0.02341078408062458,0.03883608058094978,0.04228327423334122,40082.13824550001,-42.60385131835938,-53.70124816894531,-22.76473999023438,40082.0475345,0.08281963721769471,-1.287831293833258,0.1148746650927398,-0.01191541738808155,0.02631458640098572,-0.005900390446186066,0.002349674701690674,0.007108747959136963,-0.003062009811401367,2,0.07068249435879179,-0.5969271884987106,-0.001379448546344808,0.7991746810121418,-0.9539031982421875,-0.1146221831440926,-0.2773638367652893,-17.26449966430664,-32.71376037597656,-27.32022094726562,-1,2,40073.2594445,1,2,1659874783.008561,0,0,0,0,0,0,0,0,0,40079.379633,0,0.2483826,97.26609,1659874783.156116,3232235861,168214937,0,0,1,1659874783.131723,1,0.16,0
1659874791.890511,89,1659874790.844409,28.61998320441207,77.37093450085771,206.6389,-1,-1,-1,-1,16.58584403991699,35,-9999,1659874791.885203,-17.47899627685547,-32.48525619506836,-27.16240692138672,217.7929382324219,216.5540618896484,13.09635448455811,40082.2439515,-0.9533233642578125,-0.12152099609375,-0.2816314697265625,40082.17218050001,-0.02651656232774258,0.01787859946489334,0.02505635097622871,40082.2383155,-42.83427429199219,-53.579345703125,-22.3251953125,40082.14826050001,0.08213107202692811,-1.284807533026092,0.1127962780375146,-0.007019753567874432,0.01251605339348316,0.03441415727138519,0.001229584217071533,-0.003760479390621185,0.01023319363594055,2,0.06965086300903126,-0.5958120421298934,-0.000925021680713678,0.8000975343769695,-0.9532866477966309,-0.1125572472810745,-0.2803135216236115,-17.28454208374023,-32.58979797363281,-27.27944183349609,-1,2,40073.2594445,1,2,1659874783.008561,0,0,0,0,0,0,0,0,0,40079.379633,0,0.2483826,97.26609,1659874783.156116,3232235861,168214937,0,0,1,1659874783.131723,1,0.16,0
1659874791.985722,90,1659874790.844409,28.61998320441207,77.37093450085771,206.6389,-1,-1,-1,-1,16.58584403991699,35,-9999,1659874791.965693,-17.37153625488281,-32.54500198364258,-27.18534469604492,217.7176055908203,216.4787292480469,13.09628295898438,40082.3434155,-0.944061279296875,-0.1184539794921875,-0.30340576171875,40082.27164950001,-0.0120928818359971,0.013184511102736,0.004538558889180422,40082.3383795,-42.70175170898438,-53.82412719726562,-22.57514953613281,40082.2489875,0.07994913133341131,-1.28479672894818,0.1123909438797715,-0.03153649717569351,0.04309878870844841,-0.01431532856076956,0.00256723165512085,-0.008191607892513275,-0.002499967813491821,2,0.06883921341545557,-0.5958966615717026,-0.001676037071000336,0.8001034787168669,-0.9533272385597229,-0.1121544763445854,-0.2803366482257843,-17.36942291259766,-32.59016799926758,-27.20694732666016,-1,2,40073.2594445,1,2,1659874783.008561,0,0,0,0,0,0,0,0,0,40079.379633,0,0.2483826,97.26609,1659874783.156116,3232235861,168214937,0,0,1,1659874783.131723,1,0.16,0
1659874792.086401,91,1659874790.844409,28.61998320441207,77.37093450085771,206.6389,-1,-1,-1,-1,16.58584403991699,35,-9999,1659874792.06658,-17.64381408691406,-32.67983627319336,-26.55818176269531,216.7267608642578,215.4878845214844,13.09622669219971,40082.4428845,-0.947235107421875,-0.1332244873046875,-0.283721923828125,40082.3711175,0.1600099056959152,-0.05292819440364838,0.08293429762125015,40082.4384455,-43.04774475097656,-53.92225646972656,-21.8677978515625,40082.3497145,0.08481290595873224,-1.286476596635926,0.1114468217269168,0.1167521178722382,-0.03466445580124855,0.06588176637887955,0.01146936416625977,-0.009663850069046021,-0.02580082416534424,2,0.06991223925233639,-0.596431119041073,0.0004940281208503094,0.7996137114196122,-0.9538980722427368,-0.1112162619829178,-0.278764396905899,-17.45020294189453,-32.53273010253906,-27.05244827270508,-1,2,40073.2594445,1,2,1659874783.008561,0,0,0,0,0,0,0,0,0,40079.379633,0,0.2483826,97.26609,1659874783.156116,3232235861,168214937,0,0,1,1659874783.131723,1,0.16,0
1659874792.187417,92,1659874790.844409,28.61998320441207,77.37093450085771,206.6389,-1,-1,-1,-1,16.58584403991699,35,-9999,1659874792.167299,-17.84146499633789,-33.22203063964844,-26.03926467895508,215.4225311279297,214.1836547851562,13.09620571136475,40082.5423535,-0.945587158203125,-0.1408538818359375,-0.270751953125,40082.4705865,0.1672028452157974,0.0203380286693573,0.1082471087574959,40082.5385105,-43.19248962402344,-54.23747253417969,-21.55955505371094,40082.4504415,0.1029881628963584,-1.289196747857233,0.1088772121521018,0.154519334435463,0.02999384887516499,0.1065293624997139,0.008345067501068115,-0.02465382218360901,-0.01032793521881104,2,0.07431801149304204,-0.5969533176459001,0.008430767643848314,0.7987819984196961,-0.9549242258071899,-0.1086622327566147,-0.2762471437454224,-17.77784729003906,-32.90604019165039,-26.59344482421875,-1,2,40073.2594445,1,2,1659874783.008561,0,0,0,0,0,0,0,0,0,40079.379633,0,0.2483826,97.26609,1659874783.156116,3232235861,168214937,0,0,1,1659874783.131723,1,0.16,0
1659874792.287887,93,1659874790.844409,28.61998320441207,77.37093450085771,206.6389,-1,-1,-1,-1,16.58584403991699,35,-9999,1659874792.268092,-18.08284378051758,-33.75691223144531,-25.54555892944336,213.9260864257812,212.6872100830078,13.09621429443359,40082.6418215,-0.964111328125,-0.1088104248046875,-0.2872467041015625,40082.57005050001,0.1792373955249786,0.02483823895454407,0.07650329917669296,40082.6385765,-43.45883178710938,-55.13609313964844,-20.72445678710938,40082.5511675,0.1253413911575463,-1.290544260527108,0.1059527949803787,0.2088634967803955,-0.003307176753878593,0.1009183749556541,0.002197027206420898,-0.02406711876392365,0.007697790861129761,2,0.07983554278151883,-0.5967435526554159,0.01818349449370993,0.7982436794532362,-0.955596923828125,-0.105754666030407,-0.2750468254089355,-17.97143173217773,-33.30192947387695,-26.18999481201172,-1,2,40073.2594445,1,2,1659874783.008561,0,0,0,0,0,0,0,0,0,40079.379633,0,0.2483826,97.26609,1659874783.156116,3232235861,168214937,0,0,1,1659874783.131723,1,0.16,0
1659874792.383547,94,1659874790.844409,28.61998320441207,77.37093450085771,206.6389,-1,-1,-1,-1,16.58584403991699,35,-9999,1659874792.368941,-18.32709121704102,-34.5451774597168,-24.33273315429688,211.8928070068359,210.6539306640625,13.09657764434814,40082.7412865,-0.9515380859375,-0.1000213623046875,-0.287200927734375,40082.6695195,0.3028059303760529,0.02968093007802963,0.0692128911614418,40082.7386425,-43.71127319335938,-55.91807556152344,-19.24932861328125,40082.6518945,0.1533057312182018,-1.293088334778647,0.1055892442374457,0.3278889954090118,-0.02095508761703968,0.05525285750627518,-0.006224632263183594,-0.0005180835723876953,-0.009555220603942871,2,0.08806447065144343,-0.5966003389620664,0.02933997057796672,0.7971524802061196,-0.9563304781913757,-0.105393148958683,-0.2726253569126129,-18.20139312744141,-33.99353790283203,-25.06956100463867,-1,2,40073.2594445,1,2,1659874783.008561,0,0,0,0,0,0,0,0,0,40079.379633,0,0.2483826,97.26609,1659874783.156116,3232235861,168214937,0,0,1,1659874783.131723,1,0.16,0
1659874792.484759,95,1659874790.844409,28.61998320441207,77.37093450085771,206.6389,-1,-1,-1,-1,16.58584403991699,35,-9999,1659874792.469523,-18.82632446289062,-35.31865692138672,-23.08252334594727,209.1986694335938,207.9597930908203,13.09693622589111,40082.8407545,-0.9556427001953125,-0.0967559814453125,-0.2736358642578125,40082.7689885,0.4177298545837402,0.04591715708374977,0.1251523196697235,40082.8387095,-44.41221618652344,-56.77250671386719,-17.57710266113281,40082.7526215,0.1921569074755803,-1.295183768560505,0.1054882949112546,0.4309234619140625,-0.0001532624009996653,0.1062945276498795,0.005692005157470703,0.002830035984516144,-0.009802073240280151,2,0.09964349548520238,-0.5956167623429748,0.04474466274572664,0.7958076114943042,-0.956909716129303,-0.1052927598357201,-0.2706236839294434,-18.56342315673828,-34.95172119140625,-23.9990234375,-1,2,40073.2594445,1,2,1659874783.008561,0,0,0,0,0,0,0,0,0,40079.379633,0,0.2483826,97.26609,1659874783.156116,3232235861,168214937,0,0,1,1659874783.131723,1,0.16,0
1659874792.585005,96,1659874790.844409,28.61998320441207,77.37093450085771,206.6389,-1,-1,-1,-1,16.58584403991699,35,-9999,1659874792.570182,-19.3724250793457,-36.35934448242188,-21.08744049072266,205.9395751953125,204.7006988525391,13.09704780578613,40082.9402235,-0.953521728515625,-0.0924224853515625,-0.2646484375,40082.8684565,0.5053310990333557,0.04397305101156235,0.168131485581398,40082.9387705,-44.73110961914062,-57.61909484863281,-16.0650634765625,40082.8533475,0.2403236109575032,-1.29711548018229,0.103736323919823,0.500716507434845,0.01263179257512093,0.147165060043335,0.003322124481201172,0.004536092281341553,-0.005315005779266357,2,0.1133304856904054,-0.5939226432253427,0.06431442595238479,0.7938991686125367,-0.9576069712638855,-0.1035503670573235,-0.2688241899013519,-18.97031784057617,-35.61907196044922,-22.27685928344727,-1,2,40073.2594445,1,2,1659874783.008561,0,0,0,0,0,0,0,0,0,40079.379633,0,0.2483826,97.26609,1659874783.156116,3232235861,168214937,0,0,1,1659874783.131723,1,0.16,0
1659874792.685702,97,1659874790.844409,28.61998320441207,77.37093450085771,206.6389,-1,-1,-1,-1,16.58584403991699,35,-9999,1659874792.670971,-19.80426406860352,-37.02651214599609,-19.11592864990234,202.50146484375,201.2625885009766,13.0968542098999,40083.03969229167,-0.97015380859375,-0.088592529296875,-0.2639007568359375,40082.9679215,0.4851677715778351,0.1149276494979858,0.2131112068891525,40083.03883129167,-45.33932495117188,-58.17115783691406,-13.702392578125,40082.9540745,0.2976306614890235,-1.299510413824816,0.100221679684654,0.5237722396850586,0.09155145287513733,0.2099536955356598,0.005986392498016357,0.002321496605873108,0.01069045066833496,2,0.1290298178422137,-0.5916404108500545,0.08793744580773805,0.7909360911630348,-0.9585925936698914,-0.1000539883971214,-0.266625851392746,-19.52519607543945,-36.42596435546875,-20.57410049438477,-1,2,40073.2594445,1,2,1659874783.008561,0,0,0,0,0,0,0,0,0,40080.382014,0,0.237793,97.2662,1659874783.156116,3232235861,168214937,0,0,1,1659874783.131723,1,0.16,0
1659874792.781573,98,1659874790.844409,28.61998320441207,77.37093450085771,206.6389,-1,-1,-1,-1,16.58584403991699,35,-9999,1659874792.771615,-20.50076293945312,-37.70254135131836,-17.45619201660156,199.1826019287109,197.9437255859375,13.09695529937744,40083.13915629167,-0.957427978515625,-0.0995941162109375,-0.27099609375,40083.06738929167,0.4965751469135284,0.08236624300479889,0.1831660866737366,40083.03883129167,-45.33932495117188,-58.17115783691406,-13.702392578125,40083.05480129167,0.3523876802148957,-1.295754228698112,0.09427048643332735,0.5108312368392944,0.09469393640756607,0.1731269955635071,-0.01657575368881226,0.006514996290206909,0.009975314140319824,2,0.1426537851127268,-0.5869063824667556,0.1116149828761381,0.7891343746193691,-0.9581406116485596,-0.09413091838359833,-0.2703815996646881,-20.05287551879883,-37.23598098754883,-18.35551261901855,-1,2,40073.2594445,1,2,1659874783.008561,0,0,0,0,0,0,0,0,0,40080.382014,0,0.237793,97.2662,1659874783.156116,3232235861,168214937,0,0,1,1659874783.131723,1,0.16,0
1659874792.884223,99,1659874790.844409,28.61998320441207,77.37093450085771,206.6389,-1,-1,-1,-1,16.58584403991699,35,-9999,1659874792.87226,-20.92100524902344,-38.458251953125,-15.32918834686279,196.0054626464844,194.7665863037109,13.0971565246582,40083.23862529167,-0.936004638671875,-0.088165283203125,-0.284881591796875,40083.16685829167,0.4885877966880798,0.07004086673259735,0.1628624200820923,40083.23894429167,-46.32559204101562,-59.54608154296875,-10.18714904785156,40083.15552729167,0.4058200702037352,-1.294410902775574,0.09058874995616462,0.4959633350372314,0.05891193449497223,0.1627610623836517,-0.002345919609069824,-0.01172318309545517,-0.001493066549301147,2,0.1567652053945363,-0.5827041258359895,0.133861296788464,0.7861054369539109,-0.958103358745575,-0.09046489745378494,-0.2717611491680145,-20.51167297363281,-38.04683303833008,-16.8490161895752,-1,2,40073.2594445,1,2,1659874783.008561,0,0,0,0,0,0,0,0,0,40080.382014,0,0.237793,97.2662,1659874783.156116,3232235861,168214937,0,0,1,1659874783.131723,1,0.16,0
1659874792.982696,100,1659874790.844409,28.61998320441207,77.37093450085771,206.6389,-1,-1,-1,-1,16.58584403991699,35,-9999,1659874792.973271,-21.78183746337891,-38.90650177001953,-13.16324234008789,192.12939453125,190.8905181884766,13.09702587127686,40083.33809329167,-0.9656219482421875,-0.08642578125,-0.2917938232421875,40083.26632729167,0.5636830925941467,0.04917313903570175,0.2331038266420364,40083.33901329167,-47.24522399902344,-60.03315734863281,-8.530197143554688,40083.25625429167,0.4619290137716313,-1.294181470596108,0.08885941637337849,0.5684419870376587,0.04653999954462051,0.2062594443559647,0.03015041351318359,0.005261749029159546,-0.01488757133483887,2,0.1723654189972543,-0.5781682442863958,0.1563933623417016,0.7820184484100362,-0.9581900835037231,-0.08874252438545227,-0.2720232903957367,-21.05768203735352,-38.72878646850586,-14.63804054260254,-1,2,40073.2594445,1,2,1659874783.008561,0,0,0,0,0,0,0,0,0,40080.382014,0,0.237793,97.2662,1659874783.156116,3232235861,168214937,0,0,1,1659874783.131723,1,0.16,0
1659874793.083479,101,1659874790.844409,28.61998320441207,77.37093450085771,206.6389,-1,-1,-1,-1,16.58584403991699,35,-9999,1659874793.073732,-22.73053359985352,-39.2034912109375,-10.64577102661133,188.0605621337891,186.8216857910156,13.09603023529053,40083.43756229167,-0.9635009765625,-0.0848541259765625,-0.2912139892578125,40083.36579129167,0.6230800747871399,0.08065330237150192,0.226614773273468,40083.43908229167,-48.02230834960938,-60.65803527832031,-5.414138793945312,40083.35698129167,0.5265056572706469,-1.291414562510949,0.08099502638277507,0.6282972693443298,0.07299292832612991,0.2171438336372375,-0.003442466259002686,-0.006816208362579346,-0.01595962047576904,2,0.1876855714884826,-0.5721410718276753,0.1841388668935818,0.7768666319615172,-0.9580750465393066,-0.08090649545192719,-0.2748574316501617,-21.96796035766602,-39.11476516723633,-12.59698104858398,-1,2,40073.2594445,1,2,1659874783.008561,0,0,0,0,0,0,0,0,0,40080.382014,0,0.237793,97.2662,1659874783.156116,3232235861,168214937,0,0,1,1659874783.131723,1,0.16,0
1659874793.179424,102,1659874790.844409,28.61998320441207,77.37093450085771,206.6389,-1,-1,-1,-1,16.58584403991699,35,-9999,1659874793.174902,-23.22979354858398,-39.92092895507812,-8.283980369567871,184.3904418945312,183.1515655517578,13.09171199798584,40083.53702629167,-0.9515380859375,-0.0914154052734375,-0.2931976318359375,40083.46526029167,0.6611254811286926,0.06607222557067871,0.2016462981700897,40083.43908229167,-48.02230834960938,-60.65803527832031,-5.414138793945312,40083.45770729167,0.5941251480909607,-1.288497693042604,0.07754194082132219,0.6795238852500916,0.06094391644001007,0.2083431780338287,-0.01044011116027832,-0.008656322956085205,-0.01005351543426514,2,0.2053047026926543,-0.5647888677134802,0.2116026141856199,0.7707710905304606,-0.9575318694114685,-0.077464260160923,-0.2777270376682281,-22.67690277099609,-39.64899063110352,-9.906430244445801,-1,2,40073.2594445,1,2,1659874783.008561,0,0,0,0,0,0,0,0,0,40080.382014,0,0.237793,97.2662,1659874783.156116,3232235861,168214937,0,0,1,1659874783.131723,1,0.16,0
1659874793.28254,103,1659874790.844409,28.61998320441207,77.37093450085771,206.6389,-1,-1,-1,-1,16.58584403991699,35,-9999,1659874793.275283,-23.8288459777832,-39.98099517822266,-5.690470695495605,180.9337158203125,179.6948394775391,13.08749675750732,40083.63649529167,-0.9308624267578125,-0.082794189453125,-0.32086181640625,40083.56472829167,0.6122167706489563,0.06078638508915901,0.1548321843147278,40083.53915229167,-48.50627136230469,-61.10122680664062,-3.1265869140625,40083.55843429167,0.656438761333564,-1.285777867662422,0.08058725425714539,0.6237401366233826,0.06479363143444061,0.1426658928394318,0.02195638418197632,-0.01430272310972214,-0.01999959349632263,2,0.2236198735485192,-0.5566532336974611,0.2349345908883837,0.7648118439206872,-0.9565420746803284,-0.08050005882978439,-0.2802626490592957,-23.23049163818359,-40.09243011474609,-7.472749710083008,-1,2,40073.2594445,1,2,1659874783.008561,0,0,0,0,0,0,0,0,0,40080.382014,0,0.237793,97.2662,1659874783.156116,3232235861,168214937,0,0,1,1659874783.131723,1,0.16,0
1659874793.380924,104,1659874790.844409,28.61998320441207,77.37093450085771,206.6389,-1,-1,-1,-1,16.58584403991699,35,-9999,1659874793.376429,-24.87971878051758,-39.99900817871094,-3.069249629974365,176.7480163574219,175.5091400146484,13.08324241638184,40083.73596329167,-0.950897216796875,-0.072296142578125,-0.3350372314453125,40083.66419729167,0.6352866888046265,0.05973150581121445,0.2507736384868622,40083.63922029167,-49.10031127929688,-61.24020385742188,-0.254913330078125,40083.65916029167,0.7205958503948312,-1.282736780226614,0.07954825080699328,0.6546915769577026,0.06602679193019867,0.2484142631292343,0.01852428913116455,0.01174598932266235,-0.02968740463256836,2,0.2405789302123422,-0.5482014520656049,0.260006758648785,0.7576235924280852,-0.9557650089263916,-0.0794643834233284,-0.2831938862800598,-23.93431854248047,-40.16829681396484,-4.787114143371582,-1,2,40073.2594445,1,2,1659874783.008561,0,0,0,0,0,0,0,0,0,40080.382014,0,0.237793,97.2662,1659874783.156116,3232235861,168214937,0,0,1,1659874783.131723,1,0.16,0
1659874793.485895,105,1659874790.844409,28.61998320441207,77.37093450085771,206.6389,-1,-1,-1,-1,16.58584403991699,35,-9999,1659874793.476772,-25.74581527709961,-39.49107360839844,-0.08055400848388672,172.4293670654297,171.1904907226562,13.0792064666748,40083.83543229167,-0.95050048828125,-0.0715484619140625,-0.2938232421875,40083.76366129167,0.6892865300178528,0.01605326868593693,0.2632731795310974,40083.73928929167,-50.20687866210938,-61.00016784667969,1.968185424804688,40083.75988729167,0.7884092673838968,-1.279186636297907,0.07037352021313129,0.6952571868896484,0.01494202390313148,0.2665223479270935,-0.004778206348419189,0.00422976166009903,-0.0448516309261322,2,0.2551610142174985,-0.5399087807954057,0.2885794956890632,0.7484071507618473,-0.9554116725921631,-0.07031545042991638,-0.2867827415466309,-24.8034782409668,-39.74369049072266,-1.846641063690186,-1,2,40073.2594445,1,2,1659874783.008561,0,0,0,0,0,0,0,0,0,40080.382014,0,0.237793,97.2662,1659874783.156116,3232235861,168214937,0,0,1,1659874783.131723,1,0.16,0
1659874793.577958,106,1659874790.844409,28.61998320441207,77.37093450085771,206.6389,-1,-1,-1,-1,16.58584403991699,35,-9999,1659874793.55729,-26.4124870300293,-39.21198272705078,2.157907962799072,169.5140075683594,168.2751312255859,13.0761079788208,40083.93489629167,-0.9494476318359375,-0.0681915283203125,-0.283447265625,40083.86313029167,0.5915107131004333,0.06291132420301437,0.1767500042915344,40083.83935629167,-51.19358825683594,-60.87397766113281,5.07232666015625,40083.86061429167,0.8595134536194239,-1.280054060902298,0.06884561517194104,0.6081877946853638,0.06185923144221306,0.1793133467435837,0.00109565258026123,0.008747987449169159,-0.002711743116378784,2,0.2737770716328761,-0.5310874874519449,0.3153034235512244,0.7372762204668792,-0.9557620286941528,-0.06879124045372009,-0.2859843969345093,-25.76435470581055,-39.38490295410156,0.7364635467529297,-1,2,40073.2594445,1,2,1659874783.008561,0,0,0,0,0,0,0,0,0,40080.382014,0,0.237793,97.2662,1659874783.156116,3232235861,168214937,0,0,1,1659874783.131723,1,0.16,0
1659874793.681256,107,1659874790.844409,28.61998320441207,77.37093450085771,206.6389,-1,-1,-1,-1,16.58584403991699,35,-9999,1659874793.677949,-26.99521636962891,-38.72095108032227,4.672823905944824,165.8838195800781,164.6449432373047,13.0713529586792,40084.03436475,-0.956390380859375,-0.0537872314453125,-0.30499267578125,40083.96259829167,0.4642728567123413,0.02558259107172489,0.1662648767232895,40083.93942129167,-51.56205749511719,-60.58782958984375,7.776397705078125,40083.96134029167,0.9183171417380099,-1.281072628193226,0.06986655698758644,0.4769397079944611,0.01839185692369938,0.1604246348142624,0.003470182418823242,0.00593654066324234,-0.001905053853988647,2,0.2898049856186571,-0.522989320081782,0.3364143324780574,0.7275443098768835,-0.955984890460968,-0.06980972737073898,-0.2849904894828796,-26.52837371826172,-39.08903884887695,3.32294750213623,-1,2,40073.2594445,1,2,1659874783.008561,0,0,0,0,0,0,0,0,0,40081.384189,0,0.2219543,97.2664,1659874783.156116,3232235861,168214937,0,0,1,1659874783.131723,1,0.16,0
1659874793.77877,108,1659874790.844409,28.61998320441207,77.37093450085771,206.6389,-1,-1,-1,-1,16.58584403991699,35,-9999,1659874793.75863,-27.50428009033203,-38.18427276611328,6.79063892364502,163.5502471923828,162.3113708496094,13.06831550598145,40084.13383275001,-0.982818603515625,-0.059478759765625,-0.295745849609375,40084.06206675,0.4427377581596375,0.02639032900333405,0.1413557976484299,40084.03949175,-52.53204345703125,-59.89109802246094,10.08055114746094,40084.06206675,0.9679379473826035,-1.283587546140213,0.0685177193102737,0.4542216956615448,0.02235759422183037,0.1380233019590378,0.002045512199401855,0.004377305507659912,-0.02314364910125732,2,0.3026639657229573,-0.5168061769732335,0.3543445597749775,0.7181545942467897,-0.9567881226539612,-0.06846412271261215,-0.2826117873191833,-26.95515823364258,-38.77494812011719,5.39952278137207,-1,2,40073.2594445,1,2,1659874783.008561,0,0,0,0,0,0,0,0,0,40081.384189,0,0.2219543,97.2664,1659874783.156116,3232235861,168214937,0,0,1,1659874783.131723,1,0.16,0
1659874793.883564,109,1659874790.844409,28.61998320441207,77.37093450085771,206.6389,-1,-1,-1,-1,16.58584403991699,35,-9999,1659874793.879712,-27.83439254760742,-37.49636840820312,8.963055610656738,160.5006866455078,159.2618103027344,13.0641565322876,40084.23330175001,-0.9441680908203125,-0.0659332275390625,-0.2805023193359375,40084.16153075,0.4389187693595886,0.1215541288256645,0.09079542011022568,40084.13955875,-52.75904846191406,-59.31687927246094,12.15242004394531,40084.16279275,1.017389962943975,-1.282302289052005,0.0703385529865017,0.449760377407074,0.1188334301114082,0.09246286004781723,0.005161464214324951,-0.007340788841247559,-0.0102161169052124,2,0.3157372382771858,-0.5083378093706881,0.3717064693696467,0.7097443975489225,-0.9563030004501343,-0.07028056681156158,-0.2838053405284882,-27.60462951660156,-37.99334335327148,7.82321834564209,-1,2,40073.2594445,1,2,1659874783.008561,0,0,0,0,0,0,0,0,0,40081.384189,0,0.2219543,97.2664,1659874783.156116,3232235861,168214937,0,0,1,1659874783.131723,1,0.16,0
1659874793.975409,110,1659874790.844409,28.61998320441207,77.37093450085771,206.6389,-1,-1,-1,-1,16.58584403991699,35,-9999,1659874793.960022,-28.0578498840332,-36.99216461181641,10.27043437957764,158.3989715576172,157.1600952148438,13.06140041351318,40084.33276575,-0.967193603515625,-0.0597076416015625,-0.2980194091796875,40084.26099875,0.4033522605895996,0.05439480021595955,0.148870438337326,40084.23962475,-53.27830505371094,-58.61767578125,14.19850158691406,40084.26351975001,1.065417740787299,-1.278309713463914,0.07287588523865354,0.4109944105148315,0.05319622531533241,0.1397938877344131,-0.008924722671508789,0.01661336421966553,0.01564210653305054,2,0.3279385407298872,-0.49867013462286,0.3886250811689134,0.7019651279853021,-0.9549883604049683,-0.07281139492988586,-0.2875688076019287,-27.96432113647461,-37.20797729492188,9.307704925537109,-1,2,40073.2594445,1,2,1659874783.008561,0,0,0,0,0,0,0,0,0,40081.384189,0,0.2219543,97.2664,1659874783.156116,3232235861,168214937,0,0,1,1659874783.131723,1,0.16,0
1659874794.07662,111,1659874790.844409,28.61998320441207,77.37093450085771,206.6389,-1,-1,-1,-1,16.58584403991699,35,-9999,1659874794.061368,-28.49713897705078,-36.06845474243164,11.81224346160889,155.9130401611328,154.6741638183594,13.05817413330078,40084.43223375001,-0.9575958251953125,-0.064422607421875,-0.2889251708984375,40084.36046775,0.4376106262207031,0.03380030766129494,0.1122362613677979,40084.33969475,-53.6429443359375,-57.74351501464844,15.6427001953125,40084.36424575,1.111125066838268,-1.276671592376686,0.07304384766782714,0.4424532055854797,0.03002366423606873,0.1044822409749031,-0.002649068832397461,-0.006763428449630737,0.006597697734832764,2,0.338973150485709,-0.4904411872301521,0.4047986272937891,0.6933274065643458,-0.9545043706893921,-0.0729789137840271,-0.2891292870044708,-28.41258239746094,-36.34772872924805,11.34610271453857,-1,2,40073.2594445,1,2,1659874783.008561,0,0,0,0,0,0,0,0,0,40081.384189,0,0.2219543,97.2664,1659874783.156116,3232235861,168214937,0,0,1,1659874783.131723,1,0.16,0
1659874794.176368,112,1659874790.844409,28.61998320441207,77.37093450085771,206.6389,-1,-1,-1,-1,16.58584403991699,35,-9999,1659874794.161599,-28.88922882080078,-35.23422241210938,13.385573387146,153.4620666503906,152.2231903076172,13.05505657196045,40084.53170275001,-0.957611083984375,-0.0653839111328125,-0.2657470703125,40084.45993575,0.4020465016365051,0.06775134801864624,0.1229821145534515,40084.43975975,-54.02571105957031,-56.78340148925781,17.28242492675781,40084.46497175,1.152358431331675,-1.272172102780588,0.07501016671010542,0.4226098656654358,0.04027072712779045,0.1114086508750916,-0.0008027553558349609,0.01985573768615723,-0.006090521812438965,2,0.3487190986336375,-0.4813583075342341,0.4192844593500274,0.6862141516338072,-0.9530547857284546,-0.07493984699249268,-0.2933783531188965,-28.83313369750977,-35.5144157409668,12.53615093231201,-1,2,40073.2594445,1,2,1659874783.008561,0,0,0,0,0,0,0,0,0,40081.384189,0,0.2219543,97.2664,1659874783.156116,3232235861,168214937,0,0,1,1659874783.131723,1,0.16,0
1659874794.283742,113,1659874790.844409,28.61998320441207,77.37093450085771,206.6389,-1,-1,-1,-1,16.58584403991699,35,-9999,1659874794.282394,-29.40968704223633,-33.82889556884766,15.27559947967529,150.5982360839844,149.3593597412109,13.05135726928711,40084.63117075,-0.947998046875,-0.0674591064453125,-0.282012939453125,40084.55939975,0.3247282803058624,0.0325976237654686,0.1250860095024109,40084.53983475,-54.63780212402344,-56.12315368652344,18.57989501953125,40084.56569875,1.196630777875353,-1.274123634500826,0.0753689600941022,0.3262178003787994,0.0230652429163456,0.1088107824325562,-0.01125943660736084,0.01629200577735901,0.01997995376586914,2,0.3598287138603951,-0.4740973576618628,0.4339286967370481,0.6763586442223745,-0.9535996913909912,-0.07529762387275696,-0.2915099859237671,-29.17247772216797,-34.66260147094727,14.31362819671631,-1,2,40073.2594445,1,2,1659874783.008561,0,0,0,0,0,0,0,0,0,40081.384189,0,0.2219543,97.2664,1659874783.156116,3232235861,168214937,0,0,1,1659874783.131723,1,0.16,0
1659874794.372952,114,1659874790.844409,28.61998320441207,77.37093450085771,206.6389,-1,-1,-1,-1,16.58584403991699,35,-9999,1659874794.36282,-29.80814361572266,-32.83036422729492,16.32143020629883,148.8151092529297,147.5762329101562,13.04845237731934,40084.73063475001,-0.94110107421875,-0.0566253662109375,-0.2973480224609375,40084.65886875,0.3103115260601044,0.03734524175524712,0.08276838064193726,40084.63991075,-54.79324340820312,-55.00743103027344,20.39878845214844,40084.66642475,1.237031317545086,-1.275361868467619,0.07568069459020771,0.3098075091838837,0.02889365330338478,0.06257866322994232,0.0001561641693115234,0.01664862036705017,0.01574039459228516,2,0.3697084576095225,-0.467070217966973,0.4471948308750736,0.6672166067636822,-0.9539374113082886,-0.07560846954584122,-0.2903221249580383,-29.56844711303711,-33.48838806152344,15.65182209014893,-1,2,40073.2594445,1,2,1659874783.008561,0,0,0,0,0,0,0,0,0,40081.384189,0,0.2219543,97.2664,1659874783.156116,3232235861,168214937,0,0,1,1659874783.131723,1,0.16,0
